frame,acc_x,acc_y,acc_z,timestamp
1,0.8813672,4.3062453,8.823253,20231017_132311_839
2,0.9915381,4.095484,8.669971,20231017_132311_839
3,1.0202783,4.119434,8.703502,20231017_132311_839
4,0.97237796,4.133804,8.669971,20231017_132311_842
5,0.97237796,4.071533,8.780142,20231017_132311_844
6,0.9532178,4.157754,8.804092,20231017_132311_847
7,0.92926764,4.129014,8.880733,20231017_132311_850
8,0.9532178,4.2200246,8.928633,20231017_132311_852
9,0.9580079,4.3014555,8.962164,20231017_132311_855
10,1.0011182,4.4834766,8.919053,20231017_132311_857
11,1.0633887,4.5649076,9.043594,20231017_132311_859
12,0.9484278,4.550537,8.966953,20231017_132311_862
13,0.91010743,4.5649076,9.034014,20231017_132311_864
14,0.9867481,4.397256,8.923843,20231017_132311_867
15,0.97237796,4.397256,9.038804,20231017_132311_870
16,1.0154883,4.406836,8.971744,20231017_132311_873
17,0.9867481,4.382886,8.962164,20231017_132311_875
18,0.9867481,4.258345,8.986114,20231017_132311_877
19,1.0250684,4.287085,8.914263,20231017_132311_880
20,0.9915381,4.1721244,8.938213,20231017_132311_883
21,1.0298585,4.1242237,8.847202,20231017_132311_885
22,1.0394385,4.023633,8.813672,20231017_132311_887
23,0.9915381,4.033213,8.856783,20231017_132311_889
24,1.0298585,4.0044727,8.871153,20231017_132311_892
25,0.97237796,3.9326222,8.737032,20231017_132311_895
26,1.0394385,3.9948928,8.660391,20231017_132311_897
27,1.0059083,3.9517825,8.689131,20231017_132311_900
28,1.0825489,4.014053,8.612491,20231017_132311_904
29,1.101709,3.9901028,8.689131,20231017_132311_905
30,1.0011182,3.999683,8.765772,20231017_132311_907
31,0.9915381,3.9948928,8.756192,20231017_132311_910
32,0.9627979,3.9901028,8.760982,20231017_132311_912
33,1.0059083,4.0763235,8.713081,20231017_132311_915
34,1.0202783,4.071533,8.703502,20231017_132311_918
35,0.98195803,4.143384,8.751402,20231017_132311_921
36,0.9963282,4.2008643,8.665181,20231017_132311_923
37,0.9436377,4.1002736,8.717872,20231017_132311_925
38,0.9532178,4.152964,8.732242,20231017_132311_928
39,0.9244776,4.129014,8.713081,20231017_132311_930
40,0.9484278,4.167334,8.698711,20231017_132311_933
41,0.89573735,4.2200246,8.789722,20231017_132311_936
42,0.89573735,4.1625443,8.751402,20231017_132311_938
43,0.96758795,4.181704,8.784932,20231017_132311_940
44,0.9532178,4.143384,8.722662,20231017_132311_943
45,0.85741705,4.2200246,8.722662,20231017_132311_945
46,0.9148975,4.282295,8.775352,20231017_132311_948
47,0.8861573,4.2200246,8.732242,20231017_132311_951
48,0.86220706,4.287085,8.713081,20231017_132311_953
49,0.8669971,4.2439747,8.832832,20231017_132311_956
50,0.8909473,4.3541455,8.794512,20231017_132311_958
51,0.9388477,4.2918754,8.751402,20231017_132311_961
52,0.8813672,4.3158255,8.861572,20231017_132311_963
53,0.9148975,4.358936,8.847202,20231017_132311_966
54,0.89573735,4.3206153,8.866363,20231017_132311_968
55,0.8813672,4.282295,8.885523,20231017_132311_971
56,0.90052736,4.277505,8.909473,20231017_132311_973
57,0.92926764,4.2200246,8.880733,20231017_132311_976
58,0.9053174,4.287085,8.8951025,20231017_132311_978
59,0.86220706,4.1960745,8.904683,20231017_132311_981
60,0.8765772,4.2056546,8.909473,20231017_132311_983
61,0.8861573,4.2439747,8.919053,20231017_132311_986
62,0.9388477,4.253555,8.976534,20231017_132311_989
63,0.9196875,4.2056546,8.933423,20231017_132311_991
64,0.9484278,4.1960745,8.947793,20231017_132311_994
65,0.9532178,4.176914,8.990904,20231017_132311_996
66,0.977168,4.133804,8.899893,20231017_132311_999
67,1.0059083,4.1721244,8.990904,20231017_132312_001
68,0.9915381,4.2200246,8.914263,20231017_132312_004
69,0.9915381,4.129014,8.957374,20231017_132312_007
70,0.9580079,4.2343946,8.880733,20231017_132312_009
71,0.9196875,4.2056546,8.919053,20231017_132312_011
72,0.9532178,4.2200246,8.880733,20231017_132312_014
73,0.9244776,4.1625443,8.923843,20231017_132312_016
74,0.9388477,4.1625443,8.914263,20231017_132312_019
75,0.9580079,4.2008643,8.861572,20231017_132312_022
76,0.92926764,4.191284,8.952583,20231017_132312_024
77,1.0250684,4.191284,8.933423,20231017_132312_027
78,0.98195803,4.148174,8.885523,20231017_132312_029
79,0.9963282,4.2296047,8.923843,20231017_132312_031
80,1.0729688,4.2200246,8.871153,20231017_132312_034
81,0.977168,4.253555,8.928633,20231017_132312_037
82,1.0202783,4.1864944,8.986114,20231017_132312_039
83,1.0777588,4.267925,8.966953,20231017_132312_042
84,1.0681788,4.2296047,8.943004,20231017_132312_044
85,1.0202783,4.176914,8.962164,20231017_132312_047
86,1.0298585,4.2248144,8.947793,20231017_132312_049
87,1.0442286,4.3014555,9.010064,20231017_132312_052
88,1.0490186,4.157754,8.962164,20231017_132312_054
89,1.0729688,4.191284,8.981323,20231017_132312_057
90,0.9867481,4.2056546,8.966953,20231017_132312_059
91,0.977168,4.2200246,8.904683,20231017_132312_062
92,0.9436377,4.2248144,8.986114,20231017_132312_065
93,1.0011182,4.248765,8.904683,20231017_132312_067
94,0.9580079,4.282295,8.947793,20231017_132312_070
95,0.9963282,4.2439747,8.861572,20231017_132312_072
96,0.9867481,4.2056546,8.847202,20231017_132312_075
97,0.9532178,4.2439747,8.875943,20231017_132312_077
98,0.9436377,4.2152348,8.919053,20231017_132312_080
99,0.96758795,4.152964,8.861572,20231017_132312_082
100,1.0011182,4.2248144,8.832832,20231017_132312_085
101,0.97237796,4.2200246,8.828042,20231017_132312_088
102,0.9867481,4.1864944,8.828042,20231017_132312_090
103,0.9388477,4.2008643,8.799302,20231017_132312_092
104,0.9963282,4.1864944,8.784932,20231017_132312_095
105,0.93405765,4.176914,8.904683,20231017_132312_097
106,0.98195803,4.1625443,8.799302,20231017_132312_100
107,0.93405765,4.2152348,8.775352,20231017_132312_102
108,0.9436377,4.2200246,8.751402,20231017_132312_105
109,0.9148975,4.138594,8.799302,20231017_132312_108
110,0.9580079,4.2056546,8.851993,20231017_132312_110
111,0.9867481,4.3014555,8.851993,20231017_132312_113
112,0.97237796,4.3397756,8.899893,20231017_132312_115
113,0.98195803,4.272715,8.851993,20231017_132312_118
114,0.91010743,4.3397756,8.875943,20231017_132312_120
115,1.0011182,4.378096,8.799302,20231017_132312_123
116,0.92926764,4.3397756,8.837623,20231017_132312_126
117,0.977168,4.3349857,8.871153,20231017_132312_128
118,1.0011182,4.311035,8.818462,20231017_132312_131
119,0.9627979,4.287085,8.880733,20231017_132312_133
120,0.98195803,4.3158255,8.899893,20231017_132312_135
121,0.9963282,4.1960745,8.971744,20231017_132312_138
122,0.9867481,4.2056546,8.928633,20231017_132312_141
123,1.0442286,4.1864944,8.966953,20231017_132312_143
124,1.0394385,4.1242237,8.875943,20231017_132312_146
125,1.0059083,4.129014,8.890313,20231017_132312_148
126,1.0202783,4.148174,8.856783,20231017_132312_151
127,0.977168,4.095484,8.880733,20231017_132312_153
128,1.0490186,4.2104445,8.885523,20231017_132312_156
129,1.0106983,4.152964,8.871153,20231017_132312_158
130,0.96758795,4.157754,8.794512,20231017_132312_161
131,1.0059083,4.2008643,8.756192,20231017_132312_163
132,1.0011182,4.181704,8.780142,20231017_132312_166
133,1.0202783,4.157754,8.813672,20231017_132312_169
134,1.0298585,4.1721244,8.784932,20231017_132312_171
135,1.0250684,4.1002736,8.842413,20231017_132312_173
136,0.9867481,4.157754,8.818462,20231017_132312_176
137,1.0011182,4.1960745,8.828042,20231017_132312_179
138,0.9484278,4.157754,8.866363,20231017_132312_181
139,0.9436377,4.191284,8.885523,20231017_132312_184
140,0.9436377,4.1960745,8.875943,20231017_132312_186
141,0.91010743,4.176914,8.780142,20231017_132312_189
142,0.9388477,4.2296047,8.899893,20231017_132312_192
143,0.89573735,4.191284,8.871153,20231017_132312_194
144,0.9627979,4.2056546,8.828042,20231017_132312_196
145,0.97237796,4.2104445,8.837623,20231017_132312_199
146,0.9388477,4.176914,8.856783,20231017_132312_201
147,0.977168,4.248765,8.885523,20231017_132312_204
148,1.0250684,4.2296047,8.890313,20231017_132312_207
149,0.9388477,4.263135,8.770562,20231017_132312_209
150,0.93405765,4.2056546,8.842413,20231017_132312_212
151,0.9148975,4.248765,8.885523,20231017_132312_214
152,0.97237796,4.1864944,8.813672,20231017_132312_217
153,0.9532178,4.176914,8.851993,20231017_132312_219
154,0.9436377,4.2248144,8.8951025,20231017_132312_222
155,0.9053174,4.181704,8.837623,20231017_132312_224
156,1.0011182,4.358936,8.837623,20231017_132312_227
157,0.9532178,4.263135,8.828042,20231017_132312_230
158,0.98195803,4.2104445,8.837623,20231017_132312_232
159,0.9867481,4.263135,8.789722,20231017_132312_234
160,1.0585986,4.3062453,8.866363,20231017_132312_237
161,1.0250684,4.2343946,8.899893,20231017_132312_239
162,1.0825489,4.296665,8.885523,20231017_132312_242
163,1.0442286,4.3254056,8.8951025,20231017_132312_245
164,1.0059083,4.239185,8.866363,20231017_132312_247
165,0.98195803,4.267925,8.871153,20231017_132312_250
166,1.0154883,4.3206153,8.976534,20231017_132312_252
167,1.0394385,4.2343946,8.909473,20231017_132312_255
168,1.0585986,4.2248144,8.923843,20231017_132312_257
169,1.0154883,4.2296047,8.832832,20231017_132312_260
170,1.0298585,4.2343946,8.890313,20231017_132312_262
171,1.0585986,4.2104445,8.880733,20231017_132312_265
172,1.0202783,4.3062453,8.919053,20231017_132312_268
173,1.0298585,4.282295,8.923843,20231017_132312_270
174,0.97237796,4.277505,8.832832,20231017_132312_272
175,1.0154883,4.282295,8.885523,20231017_132312_275
176,0.9867481,4.3014555,8.938213,20231017_132312_277
177,0.9484278,4.1960745,8.880733,20231017_132312_280
178,0.9484278,4.277505,8.875943,20231017_132312_282
179,0.8861573,4.253555,9.0148535,20231017_132312_285
180,0.93405765,4.258345,8.943004,20231017_132312_288
181,0.977168,4.2439747,8.837623,20231017_132312_290
182,0.9580079,4.1864944,8.986114,20231017_132312_293
183,0.9915381,4.2056546,8.875943,20231017_132312_295
184,0.9436377,4.191284,8.990904,20231017_132312_298
185,0.96758795,4.2200246,8.880733,20231017_132312_300
186,1.0154883,4.2439747,8.957374,20231017_132312_303
187,0.96758795,4.167334,8.914263,20231017_132312_306
188,0.97237796,4.1864944,8.914263,20231017_132312_308
189,0.9244776,4.248765,8.861572,20231017_132312_310
190,0.9580079,4.2056546,8.909473,20231017_132312_313
191,0.97237796,4.272715,8.837623,20231017_132312_316
192,0.91010743,4.239185,8.832832,20231017_132312_318
193,0.92926764,4.2152348,8.823253,20231017_132312_321
194,0.96758795,4.253555,8.808882,20231017_132312_323
195,0.9053174,4.263135,8.818462,20231017_132312_326
196,0.9148975,4.287085,8.823253,20231017_132312_328
197,0.9627979,4.2439747,8.823253,20231017_132312_331
198,0.9580079,4.3014555,8.851993,20231017_132312_334
199,0.9388477,4.248765,8.871153,20231017_132312_336
200,0.89573735,4.358936,8.808882,20231017_132312_338
201,0.9532178,4.287085,8.861572,20231017_132312_341
202,0.9388477,4.3158255,8.823253,20231017_132312_343
203,0.9244776,4.248765,8.770562,20231017_132312_346
204,0.9484278,4.3158255,8.789722,20231017_132312_349
205,0.9388477,4.253555,8.804092,20231017_132312_351
206,0.9532178,4.3397756,8.717872,20231017_132312_354
207,0.98195803,4.287085,8.756192,20231017_132312_357
208,0.9436377,4.311035,8.737032,20231017_132312_359
209,1.0106983,4.3158255,8.746612,20231017_132312_361
210,1.0202783,4.253555,8.674761,20231017_132312_364
211,0.9915381,4.239185,8.698711,20231017_132312_366
212,1.0154883,4.3062453,8.674761,20231017_132312_369
213,0.9867481,4.282295,8.684341,20231017_132312_372
214,1.0106983,4.3158255,8.631651,20231017_132312_376
215,1.0298585,4.272715,8.631651,20231017_132312_377
216,1.0011182,4.311035,8.665181,20231017_132312_378
217,1.0011182,4.3062453,8.602911,20231017_132312_382
218,1.0298585,4.3014555,8.56938,20231017_132312_384
219,0.9436377,4.282295,8.713081,20231017_132312_387
220,1.0011182,4.3349857,8.636441,20231017_132312_389
221,0.9580079,4.2918754,8.737032,20231017_132312_392
222,1.0011182,4.267925,8.708291,20231017_132312_395
223,1.0106983,4.2918754,8.751402,20231017_132312_397
224,0.92926764,4.3493557,8.713081,20231017_132312_399
225,0.9963282,4.373306,8.741821,20231017_132312_402
226,0.9867481,4.3062453,8.832832,20231017_132312_404
227,1.0298585,4.272715,8.703502,20231017_132312_407
228,0.977168,4.3397756,8.746612,20231017_132312_409
229,1.0202783,4.287085,8.650811,20231017_132312_412
230,1.0011182,4.311035,8.765772,20231017_132312_415
231,0.9532178,4.3158255,8.646021,20231017_132312_417
232,1.092129,4.3349857,8.669971,20231017_132312_420
233,1.0585986,4.253555,8.636441,20231017_132312_422
234,1.0873389,4.282295,8.650811,20231017_132312_425
235,1.1160791,4.3014555,8.650811,20231017_132312_427
236,1.0585986,4.253555,8.631651,20231017_132312_430
237,1.0490186,4.277505,8.612491,20231017_132312_432
238,1.0681788,4.3014555,8.679551,20231017_132312_435
239,1.0538087,4.3301954,8.727451,20231017_132312_437
240,1.0106983,4.2918754,8.703502,20231017_132312_440
241,1.0298585,4.3493557,8.727451,20231017_132312_442
242,1.0346485,4.239185,8.717872,20231017_132312_445
243,1.0346485,4.3014555,8.689131,20231017_132312_447
244,0.9915381,4.2918754,8.717872,20231017_132312_450
245,1.0154883,4.253555,8.727451,20231017_132312_452
246,1.0777588,4.263135,8.808882,20231017_132312_455
247,0.9867481,4.3397756,8.847202,20231017_132312_457
248,1.0106983,4.263135,8.727451,20231017_132312_460
249,0.9915381,4.191284,8.751402,20231017_132312_463
250,1.0394385,4.272715,8.713081,20231017_132312_465
251,0.9963282,4.277505,8.765772,20231017_132312_467
252,1.0059083,4.138594,8.751402,20231017_132312_470
253,0.9532178,4.167334,8.784932,20231017_132312_473
254,0.9580079,4.2008643,8.698711,20231017_132312_475
255,0.9627979,4.1960745,8.732242,20231017_132312_477
256,0.97237796,4.1864944,8.737032,20231017_132312_480
257,0.9915381,4.2296047,8.751402,20231017_132312_482
258,0.9532178,4.248765,8.727451,20231017_132312_485
259,1.0202783,4.176914,8.856783,20231017_132312_488
260,0.9867481,4.2296047,8.813672,20231017_132312_490
261,1.0011182,4.239185,8.890313,20231017_132312_493
262,0.9627979,4.1864944,8.981323,20231017_132312_495
263,0.9148975,4.248765,8.871153,20231017_132312_498
264,0.96758795,4.1960745,8.914263,20231017_132312_500
265,0.9867481,4.258345,9.019644,20231017_132312_503
266,1.0011182,4.3158255,8.933423,20231017_132312_506
267,0.977168,4.3445654,8.947793,20231017_132312_508
268,0.9867481,4.358936,8.981323,20231017_132312_511
269,1.0154883,4.392466,9.053174,20231017_132312_513
270,1.0633887,4.3493557,9.081915,20231017_132312_516
271,1.0346485,4.382886,9.062755,20231017_132312_518
272,1.0298585,4.287085,9.115445,20231017_132312_521
273,1.0490186,4.248765,9.057964,20231017_132312_523
274,1.0346485,4.1960745,9.077125,20231017_132312_526
275,0.90052736,4.1146436,9.101074,20231017_132312_528
276,0.9627979,4.1098537,8.981323,20231017_132312_531
277,0.9388477,3.9613624,9.038804,20231017_132312_533
278,0.9484278,3.9901028,8.957374,20231017_132312_536
279,1.0059083,4.061953,8.8951025,20231017_132312_538
280,0.96758795,4.033213,8.923843,20231017_132312_541
281,1.0011182,4.119434,8.871153,20231017_132312_543
282,0.9627979,4.157754,8.789722,20231017_132312_546
283,0.9244776,4.1098537,8.732242,20231017_132312_549
284,0.9436377,4.248765,8.765772,20231017_132312_551
285,0.9436377,4.282295,8.813672,20231017_132312_554
286,0.9532178,4.2918754,8.765772,20231017_132312_556
287,0.977168,4.3301954,8.770562,20231017_132312_559
288,0.9436377,4.382886,8.828042,20231017_132312_561
289,1.0250684,4.5074267,8.775352,20231017_132312_564
290,1.0442286,4.526587,8.818462,20231017_132312_567
291,1.0202783,4.521797,8.780142,20231017_132312_569
292,1.0633887,4.521797,8.713081,20231017_132312_571
293,1.0729688,4.5744877,8.765772,20231017_132312_574
294,1.0729688,4.493057,8.708291,20231017_132312_576
295,1.0394385,4.526587,8.732242,20231017_132312_579
296,1.0777588,4.392466,8.727451,20231017_132312_581
297,1.092129,4.406836,8.765772,20231017_132312_584
298,1.1735597,4.3301954,8.756192,20231017_132312_587
299,1.0825489,4.2439747,8.813672,20231017_132312_589
300,1.1160791,4.119434,8.808882,20231017_132312_591
301,1.101709,4.009263,8.842413,20231017_132312_594
302,1.1256592,3.9948928,8.717872,20231017_132312_596
303,1.0825489,4.0523734,8.804092,20231017_132312_599
304,1.1304493,4.071533,8.780142,20231017_132312_602
305,1.1112891,4.023633,8.765772,20231017_132312_604
306,1.1112891,4.1242237,8.732242,20231017_132312_607
307,1.0538087,4.119434,8.765772,20231017_132312_610
308,1.0154883,4.148174,8.808882,20231017_132312_612
309,1.0633887,4.181704,8.717872,20231017_132312_614
310,1.0633887,4.181704,8.780142,20231017_132312_617
311,1.0777588,4.2104445,8.737032,20231017_132312_619
312,1.0681788,4.191284,8.765772,20231017_132312_622
313,1.1160791,4.191284,8.751402,20231017_132312_625
314,1.0777588,4.2296047,8.832832,20231017_132312_627
315,1.0538087,4.2296047,8.828042,20231017_132312_630
316,1.0394385,4.253555,8.880733,20231017_132312_632
317,1.0250684,4.2200246,8.789722,20231017_132312_635
318,1.0394385,4.253555,8.880733,20231017_132312_637
319,1.0011182,4.263135,8.880733,20231017_132312_640
320,0.977168,4.2152348,8.837623,20231017_132312_642
321,0.977168,4.3206153,8.808882,20231017_132312_645
322,0.97237796,4.3014555,8.756192,20231017_132312_648
323,0.9867481,4.3349857,8.770562,20231017_132312_650
324,0.9963282,4.311035,8.789722,20231017_132312_653
325,0.977168,4.397256,8.760982,20231017_132312_655
326,0.87178713,4.4499464,8.784932,20231017_132312_658
327,0.9053174,4.373306,8.751402,20231017_132312_660
328,0.977168,4.4355764,8.775352,20231017_132312_663
329,0.9915381,4.4116263,8.722662,20231017_132312_665
330,0.9867481,4.4355764,8.770562,20231017_132312_668
331,0.977168,4.397256,8.722662,20231017_132312_670
332,1.0298585,4.4116263,8.737032,20231017_132312_673
333,0.93405765,4.378096,8.717872,20231017_132312_676
334,0.9627979,4.358936,8.813672,20231017_132312_678
335,0.9867481,4.3301954,8.847202,20231017_132312_680
336,0.9532178,4.368516,8.765772,20231017_132312_683
337,0.9627979,4.296665,8.866363,20231017_132312_686
338,1.0202783,4.3062453,8.851993,20231017_132312_688
339,0.89573735,4.2248144,8.823253,20231017_132312_690
340,0.9580079,4.3014555,8.890313,20231017_132312_693
341,0.9148975,4.2056546,8.885523,20231017_132312_696
342,0.96758795,4.287085,8.875943,20231017_132312_698
343,0.96758795,4.181704,8.866363,20231017_132312_701
344,0.9963282,4.1960745,8.899893,20231017_132312_703
345,0.9532178,4.2343946,8.866363,20231017_132312_706
346,0.97237796,4.3014555,8.832832,20231017_132312_709
347,1.0059083,4.2296047,8.794512,20231017_132312_712
348,0.9484278,4.2248144,8.818462,20231017_132312_714
349,1.0298585,4.2343946,8.794512,20231017_132312_716
350,1.0202783,4.272715,8.808882,20231017_132312_718
351,1.0394385,4.1960745,8.813672,20231017_132312_721
352,1.0202783,4.2439747,8.737032,20231017_132312_724
353,1.0873389,4.248765,8.770562,20231017_132312_726
354,1.0633887,4.248765,8.875943,20231017_132312_729
355,1.0394385,4.272715,8.8951025,20231017_132312_731
356,1.1496094,4.181704,8.871153,20231017_132312_734
357,1.101709,4.2008643,8.837623,20231017_132312_736
358,1.0825489,4.296665,8.851993,20231017_132312_739
359,1.0825489,4.176914,8.775352,20231017_132312_741
360,1.0394385,4.2918754,8.842413,20231017_132312_744
361,1.0681788,4.253555,8.875943,20231017_132312_747
362,1.0059083,4.282295,8.832832,20231017_132312_749
363,1.0298585,4.3062453,8.909473,20231017_132312_752
364,1.0633887,4.282295,8.875943,20231017_132312_754
365,1.0633887,4.253555,8.923843,20231017_132312_757
366,1.0873389,4.1864944,8.780142,20231017_132312_760
367,1.0633887,4.248765,8.871153,20231017_132312_762
368,1.0825489,4.2200246,8.813672,20231017_132312_764
369,1.0777588,4.2248144,8.837623,20231017_132312_767
370,1.0538087,4.258345,8.756192,20231017_132312_769
371,1.0825489,4.248765,8.760982,20231017_132312_772
372,1.0681788,4.2248144,8.703502,20231017_132312_774
373,1.096919,4.258345,8.717872,20231017_132312_776
374,1.0825489,4.239185,8.703502,20231017_132312_779
375,1.0681788,4.2056546,8.727451,20231017_132312_781
376,1.0538087,4.2296047,8.737032,20231017_132312_784
377,1.0011182,4.2343946,8.885523,20231017_132312_787
378,1.0154883,4.157754,8.818462,20231017_132312_790
379,0.9867481,4.2296047,8.871153,20231017_132312_792
380,0.9484278,4.1864944,8.861572,20231017_132312_794
381,0.9532178,4.176914,9.005274,20231017_132312_797
382,1.0011182,4.2056546,8.981323,20231017_132312_799
383,1.0106983,4.1625443,8.952583,20231017_132312_802
384,1.0106983,4.2248144,9.029224,20231017_132312_804
385,1.0490186,4.2296047,9.0148535,20231017_132312_807
386,1.0059083,4.2152348,8.981323,20231017_132312_810
387,0.9963282,4.239185,8.966953,20231017_132312_812
388,1.0298585,4.2439747,8.933423,20231017_132312_815
389,1.0490186,4.253555,8.875943,20231017_132312_817
390,1.0011182,4.3062453,8.899893,20231017_132312_820
391,1.0059083,4.373306,8.938213,20231017_132312_822
392,1.0298585,4.406836,8.880733,20231017_132312_825
393,1.0490186,4.3493557,8.899893,20231017_132312_827
394,1.0585986,4.3445654,8.756192,20231017_132312_830
395,1.0633887,4.3493557,8.851993,20231017_132312_832
396,1.0729688,4.282295,8.856783,20231017_132312_835
397,0.9963282,4.282295,8.799302,20231017_132312_837
398,1.0202783,4.3301954,8.866363,20231017_132312_840
399,1.0873389,4.258345,8.875943,20231017_132312_843
400,1.0777588,4.296665,8.804092,20231017_132312_845
401,1.0490186,4.248765,8.780142,20231017_132312_848
402,1.0873389,4.3014555,8.823253,20231017_132312_851
403,0.9963282,4.2008643,8.842413,20231017_132312_853
404,1.0394385,4.2296047,8.847202,20231017_132312_856
405,0.97237796,4.167334,8.871153,20231017_132312_858
406,0.98195803,4.2056546,8.904683,20231017_132312_860
407,0.97237796,4.2296047,8.847202,20231017_132312_863
408,1.0106983,4.2343946,8.837623,20231017_132312_865
409,1.0394385,4.2248144,8.713081,20231017_132312_868
410,1.0011182,4.248765,8.832832,20231017_132312_871
411,1.0154883,4.1960745,8.832832,20231017_132312_873
412,1.0298585,4.2008643,8.780142,20231017_132312_876
413,1.0346485,4.1960745,8.732242,20231017_132312_878
414,1.0442286,4.2343946,8.794512,20231017_132312_880
415,1.0442286,4.2248144,8.875943,20231017_132312_883
416,1.0059083,4.152964,8.794512,20231017_132312_886
417,1.0585986,4.2296047,8.856783,20231017_132312_888
418,1.0298585,4.2200246,8.880733,20231017_132312_891
419,1.0442286,4.2152348,8.856783,20231017_132312_893
420,0.9963282,4.2439747,8.799302,20231017_132312_896
421,1.0059083,4.263135,8.8951025,20231017_132312_898
422,1.0106983,4.272715,8.856783,20231017_132312_901
423,1.0681788,4.258345,8.885523,20231017_132312_903
424,1.0633887,4.282295,8.914263,20231017_132312_906
425,1.0106983,4.1864944,8.8951025,20231017_132312_909
426,1.0538087,4.258345,8.871153,20231017_132312_911
427,1.0442286,4.2200246,8.890313,20231017_132312_913
428,1.0633887,4.277505,8.780142,20231017_132312_916
429,0.9915381,4.253555,8.837623,20231017_132312_918
430,1.0250684,4.263135,8.832832,20231017_132312_921
431,1.0394385,4.277505,8.856783,20231017_132312_924
432,1.0011182,4.3062453,8.813672,20231017_132312_926
433,1.0490186,4.248765,8.698711,20231017_132312_929
434,1.0681788,4.311035,8.684341,20231017_132312_931
435,1.0059083,4.2439747,8.775352,20231017_132312_934
436,1.0011182,4.287085,8.770562,20231017_132312_936
437,1.0394385,4.2008643,8.789722,20231017_132312_939
438,1.0202783,4.296665,8.808882,20231017_132312_941
439,1.0442286,4.3301954,8.765772,20231017_132312_944
440,1.0202783,4.258345,8.737032,20231017_132312_946
441,1.0681788,4.258345,8.770562,20231017_132312_949
442,1.0490186,4.3062453,8.713081,20231017_132312_952
443,1.0298585,4.2918754,8.737032,20231017_132312_954
444,0.98195803,4.3445654,8.775352,20231017_132312_957
445,1.0154883,4.296665,8.746612,20231017_132312_959
446,1.0250684,4.3014555,8.770562,20231017_132312_962
447,0.98195803,4.2056546,8.746612,20231017_132312_964
448,1.0106983,4.3014555,8.770562,20231017_132312_967
449,1.0633887,4.3062453,8.717872,20231017_132312_969
450,1.0442286,4.253555,8.784932,20231017_132312_972
451,1.0250684,4.263135,8.780142,20231017_132312_974
452,1.0729688,4.2918754,8.717872,20231017_132312_977
453,1.0250684,4.277505,8.780142,20231017_132312_979
454,1.0106983,4.3158255,8.837623,20231017_132312_982
455,1.096919,4.287085,8.842413,20231017_132312_984
456,1.0394385,4.3014555,8.770562,20231017_132312_987
457,1.0346485,4.287085,8.727451,20231017_132312_990
458,1.0490186,4.2439747,8.770562,20231017_132312_992
459,1.0442286,4.2296047,8.818462,20231017_132312_994
460,1.092129,4.3062453,8.780142,20231017_132312_997
461,1.0825489,4.277505,8.770562,20231017_132312_999
462,1.092129,4.2200246,8.847202,20231017_132313_002
463,1.1256592,4.287085,8.794512,20231017_132313_005
464,1.096919,4.272715,8.813672,20231017_132313_007
465,1.0202783,4.2248144,8.794512,20231017_132313_010
466,1.0346485,4.181704,8.875943,20231017_132313_012
467,1.0538087,4.263135,8.818462,20231017_132313_015
468,1.0011182,4.2439747,8.770562,20231017_132313_017
469,1.0106983,4.181704,8.837623,20231017_132313_020
470,1.0346485,4.2343946,8.8951025,20231017_132313_022
471,0.9627979,4.2200246,8.880733,20231017_132313_025
472,0.9532178,4.2343946,8.904683,20231017_132313_028
473,0.9867481,4.2296047,8.928633,20231017_132313_030
474,0.9915381,4.258345,8.866363,20231017_132313_033
475,0.9532178,4.1960745,8.952583,20231017_132313_035
476,0.98195803,4.2439747,8.952583,20231017_132313_038
477,0.977168,4.167334,8.880733,20231017_132313_040
478,1.0346485,4.267925,8.885523,20231017_132313_042
479,1.0154883,4.258345,8.856783,20231017_132313_045
480,0.9580079,4.248765,8.904683,20231017_132313_048
481,1.0059083,4.263135,8.808882,20231017_132313_051
482,1.0394385,4.2152348,8.775352,20231017_132313_053
483,0.96758795,4.253555,8.856783,20231017_132313_055
484,0.977168,4.2248144,8.765772,20231017_132313_058
485,0.8861573,4.2439747,8.746612,20231017_132313_060
486,0.7951465,4.311035,8.799302,20231017_132313_063
487,1.0298585,4.2152348,8.818462,20231017_132313_066
488,1.0729688,4.253555,8.784932,20231017_132313_068
489,1.1400293,4.2918754,8.818462,20231017_132313_071
490,1.0729688,4.2152348,8.818462,20231017_132313_073
491,1.101709,4.2152348,8.866363,20231017_132313_076
492,1.0873389,4.248765,8.8951025,20231017_132313_078
493,1.0250684,4.2152348,8.919053,20231017_132313_081
494,1.0394385,4.282295,8.851993,20231017_132313_083
495,1.0394385,4.239185,8.880733,20231017_132313_086
496,1.0394385,4.2296047,8.861572,20231017_132313_088
497,1.0154883,4.282295,8.871153,20231017_132313_091
498,1.0538087,4.239185,8.885523,20231017_132313_093
499,1.0490186,4.2056546,8.885523,20231017_132313_096
500,1.101709,4.2152348,8.8951025,20231017_132313_098
501,1.092129,4.3254056,8.847202,20231017_132313_101
502,1.0777588,4.2152348,8.885523,20231017_132313_103
503,1.0825489,4.239185,8.861572,20231017_132313_106
504,1.0585986,4.287085,8.837623,20231017_132313_109
505,1.0681788,4.2918754,8.890313,20231017_132313_111
506,1.0873389,4.2248144,8.909473,20231017_132313_113
507,1.0825489,4.282295,8.799302,20231017_132313_116
508,1.0154883,4.2248144,8.765772,20231017_132313_119
509,1.0681788,4.258345,8.737032,20231017_132313_121
510,1.0633887,4.248765,8.689131,20231017_132313_123
511,1.1543995,4.2248144,8.665181,20231017_132313_126
512,1.0873389,4.272715,8.602911,20231017_132313_129
513,1.1208692,4.282295,8.62207,20231017_132313_132
514,1.0394385,4.253555,8.717872,20231017_132313_134
515,1.1352394,4.2152348,8.655601,20231017_132313_136
516,1.0873389,4.258345,8.708291,20231017_132313_139
517,1.0825489,4.2104445,8.689131,20231017_132313_141
518,1.101709,4.2248144,8.737032,20231017_132313_144
519,1.0873389,4.263135,8.689131,20231017_132313_147
520,1.0250684,4.181704,8.669971,20231017_132313_149
521,1.0777588,4.267925,8.669971,20231017_132313_152
522,1.1208692,4.1721244,8.703502,20231017_132313_154
523,1.0538087,4.1242237,8.737032,20231017_132313_157
524,1.0298585,4.138594,8.770562,20231017_132313_159
525,0.98195803,4.148174,8.823253,20231017_132313_162
526,1.0154883,4.143384,8.856783,20231017_132313_167
527,0.97237796,4.248765,8.703502,20231017_132313_168
528,1.0298585,4.2152348,8.789722,20231017_132313_170
529,0.9484278,4.2152348,8.823253,20231017_132313_172
530,1.0202783,4.2200246,8.875943,20231017_132313_175
531,0.9867481,4.267925,8.875943,20231017_132313_177
532,1.0346485,4.2008643,8.919053,20231017_132313_180
533,1.0298585,4.239185,8.885523,20231017_132313_182
534,1.0106983,4.248765,8.8951025,20231017_132313_185
535,1.0681788,4.2343946,8.871153,20231017_132313_188
536,1.0059083,4.1960745,8.856783,20231017_132313_190
537,1.0154883,4.239185,8.837623,20231017_132313_193
538,1.0154883,4.2152348,8.871153,20231017_132313_195
539,1.0011182,4.2296047,8.828042,20231017_132313_198
540,1.0298585,4.2152348,8.799302,20231017_132313_200
541,1.0298585,4.2343946,8.823253,20231017_132313_202
542,1.0490186,4.2296047,8.904683,20231017_132313_205
543,1.0394385,4.176914,8.919053,20231017_132313_208
544,1.0154883,4.2056546,8.890313,20231017_132313_210
545,1.0011182,4.258345,8.899893,20231017_132313_213
546,0.96758795,4.248765,8.928633,20231017_132313_215
547,1.0442286,4.248765,8.880733,20231017_132313_218
548,1.0777588,4.1864944,8.923843,20231017_132313_221
549,1.0585986,4.2056546,8.890313,20231017_132313_223
550,1.0777588,4.2200246,8.890313,20231017_132313_226
551,1.0681788,4.152964,8.8951025,20231017_132313_228
552,1.0154883,4.143384,8.928633,20231017_132313_231
553,1.0585986,4.148174,8.923843,20231017_132313_234
554,1.1064991,4.133804,8.933423,20231017_132313_236
555,1.0298585,4.157754,8.875943,20231017_132313_238
556,1.0394385,4.181704,8.789722,20231017_132313_241
557,1.0394385,4.152964,8.847202,20231017_132313_244
558,1.0729688,4.1864944,8.928633,20231017_132313_246
559,1.092129,4.143384,8.8951025,20231017_132313_249
560,1.096919,4.129014,8.880733,20231017_132313_251
561,1.0250684,4.138594,8.899893,20231017_132313_254
562,1.0250684,4.0523734,8.880733,20231017_132313_257
563,1.0538087,4.129014,9.0004835,20231017_132313_259
564,1.0106983,4.129014,8.976534,20231017_132313_261
565,1.0059083,4.1625443,8.880733,20231017_132313_263
566,1.0633887,4.119434,8.938213,20231017_132313_267
567,1.0538087,4.1960745,8.976534,20231017_132313_269
568,1.0681788,4.2200246,8.971744,20231017_132313_272
569,1.0106983,4.258345,8.943004,20231017_132313_275
570,1.0633887,4.176914,8.933423,20231017_132313_278
571,1.0202783,4.167334,8.966953,20231017_132313_280
572,1.0154883,4.133804,8.914263,20231017_132313_282
573,1.0154883,4.1864944,8.890313,20231017_132313_284
574,1.0202783,4.2152348,8.914263,20231017_132313_287
575,0.9532178,4.2152348,8.919053,20231017_132313_290
576,1.0154883,4.277505,8.933423,20231017_132313_292
577,1.0442286,4.3206153,8.909473,20231017_132313_295
578,1.0106983,4.3206153,8.8951025,20231017_132313_297
579,1.0250684,4.3301954,8.880733,20231017_132313_299
580,1.0873389,4.373306,8.885523,20231017_132313_302
581,1.0777588,4.430786,8.804092,20231017_132313_304
582,1.0633887,4.368516,8.866363,20231017_132313_307
583,1.0681788,4.3254056,8.828042,20231017_132313_309
584,1.0633887,4.296665,8.851993,20231017_132313_312
585,1.0442286,4.2104445,8.751402,20231017_132313_314
586,1.0442286,4.119434,8.861572,20231017_132313_317
587,1.0633887,4.1098537,8.794512,20231017_132313_320
588,1.0681788,4.0811133,8.813672,20231017_132313_322
589,1.0681788,3.9182522,8.823253,20231017_132313_325
590,1.1112891,3.9469924,8.789722,20231017_132313_327
591,1.1160791,3.9853127,8.818462,20231017_132313_330
592,1.1208692,3.9661524,8.847202,20231017_132313_332
593,1.092129,4.018843,8.866363,20231017_132313_335
594,1.0442286,4.0811133,8.847202,20231017_132313_338
595,1.0538087,4.1146436,8.866363,20231017_132313_341
596,1.1256592,4.138594,8.746612,20231017_132313_343
597,1.0394385,4.2439747,8.823253,20231017_132313_345
598,1.0681788,4.2056546,8.875943,20231017_132313_348
599,1.0442286,4.263135,8.866363,20231017_132313_350
600,1.096919,4.287085,8.880733,20231017_132313_356
601,1.0873389,4.373306,8.856783,20231017_132313_357
602,1.0538087,4.3206153,8.794512,20231017_132313_359
603,0.9627979,4.378096,8.861572,20231017_132313_361
604,0.9915381,4.4643164,8.794512,20231017_132313_363
605,0.97237796,4.5601172,8.813672,20231017_132313_365
606,1.0394385,4.493057,8.875943,20231017_132313_368
607,0.9627979,4.512217,8.923843,20231017_132313_370
608,0.97237796,4.3445654,8.919053,20231017_132313_373
609,1.0538087,4.378096,8.842413,20231017_132313_376
610,1.1256592,4.296665,8.823253,20231017_132313_379
611,1.0729688,4.2248144,8.813672,20231017_132313_380
612,1.101709,4.095484,8.842413,20231017_132313_383
613,1.092129,4.038003,8.799302,20231017_132313_385
614,1.0585986,3.9517825,8.727451,20231017_132313_388
615,1.1496094,3.9901028,8.732242,20231017_132313_390
616,1.1160791,3.9565725,8.794512,20231017_132313_392
617,1.1208692,4.018843,8.746612,20231017_132313_395
618,1.0825489,4.0667434,8.655601,20231017_132313_398
619,1.0825489,4.033213,8.780142,20231017_132313_400
620,1.0346485,4.095484,8.698711,20231017_132313_403
621,1.0442286,4.119434,8.780142,20231017_132313_405
622,1.0681788,4.143384,8.765772,20231017_132313_408
623,1.0059083,4.2056546,8.708291,20231017_132313_411
624,1.0298585,4.181704,8.722662,20231017_132313_413
625,1.0298585,4.1098537,8.727451,20231017_132313_415
626,1.0633887,4.2296047,8.799302,20231017_132313_418
627,1.1064991,4.2056546,8.885523,20231017_132313_420
628,1.096919,4.148174,8.717872,20231017_132313_423
629,1.0729688,4.138594,8.727451,20231017_132313_425
630,1.0633887,4.138594,8.741821,20231017_132313_428
631,1.0681788,4.176914,8.799302,20231017_132313_431
632,1.0585986,4.2104445,8.751402,20231017_132313_433
633,1.0346485,4.1050634,8.741821,20231017_132313_436
634,0.9963282,4.1625443,8.832832,20231017_132313_438
635,1.0250684,4.2104445,8.780142,20231017_132313_441
636,0.97237796,4.248765,8.919053,20231017_132313_444
637,0.93405765,4.3349857,8.823253,20231017_132313_446
638,0.97237796,4.3637257,8.875943,20231017_132313_449
639,0.9627979,4.258345,8.713081,20231017_132313_452
640,0.9963282,4.267925,8.828042,20231017_132313_454
641,1.0011182,4.3254056,8.818462,20231017_132313_457
642,0.9436377,4.248765,8.890313,20231017_132313_459
643,0.93405765,4.267925,8.875943,20231017_132313_462
644,1.0202783,4.2008643,8.875943,20231017_132313_465
645,0.9388477,4.1625443,8.914263,20231017_132313_467
646,1.0490186,4.2104445,8.914263,20231017_132313_470
647,0.9915381,4.239185,8.8951025,20231017_132313_472
648,0.98195803,4.2918754,8.909473,20231017_132313_474
649,1.0011182,4.167334,8.8951025,20231017_132313_477
650,1.0059083,4.138594,8.923843,20231017_132313_479
651,1.0538087,4.263135,8.914263,20231017_132313_482
652,1.0011182,4.129014,8.904683,20231017_132313_484
653,1.0011182,4.167334,8.875943,20231017_132313_487
654,1.0633887,4.157754,8.952583,20231017_132313_489
655,1.0490186,4.143384,8.957374,20231017_132313_492
656,1.0873389,4.1864944,8.957374,20231017_132313_494
657,1.1112891,4.181704,8.952583,20231017_132313_497
658,1.092129,4.2104445,9.029224,20231017_132313_499
659,1.1112891,4.138594,8.938213,20231017_132313_502
660,1.0729688,4.1864944,8.919053,20231017_132313_504
661,1.092129,4.167334,9.019644,20231017_132313_507
662,1.1256592,4.2248144,9.043594,20231017_132313_509
663,1.0873389,4.1721244,8.928633,20231017_132313_512
664,1.1208692,4.1864944,9.029224,20231017_132313_514
665,1.1639795,4.2104445,8.914263,20231017_132313_517
666,1.0585986,4.1960745,8.990904,20231017_132313_519
667,1.092129,4.2104445,8.914263,20231017_132313_522
668,1.1208692,4.1960745,8.952583,20231017_132313_524
669,1.0825489,4.239185,8.990904,20231017_132313_527
670,1.1208692,4.2152348,8.986114,20231017_132313_530
671,1.0825489,4.1864944,8.976534,20231017_132313_533
672,1.101709,4.282295,8.952583,20231017_132313_535
673,1.1112891,4.2343946,8.962164,20231017_132313_538
674,1.0633887,4.239185,8.919053,20231017_132313_540
675,1.1064991,4.2439747,8.990904,20231017_132313_543
676,1.101709,4.253555,9.010064,20231017_132313_545
677,1.0873389,4.191284,8.986114,20231017_132313_548
678,1.096919,4.2248144,8.847202,20231017_132313_550
679,1.0442286,4.2918754,8.914263,20231017_132313_553
680,1.0633887,4.3062453,8.962164,20231017_132313_555
681,1.0681788,4.2104445,8.842413,20231017_132313_558
682,1.0777588,4.167334,8.8951025,20231017_132313_560
683,1.0585986,4.3062453,8.871153,20231017_132313_563
684,1.0394385,4.2056546,8.823253,20231017_132313_565
685,1.0873389,4.1721244,8.808882,20231017_132313_568
686,1.092129,4.2152348,8.727451,20231017_132313_570
687,1.0633887,4.2248144,8.756192,20231017_132313_573
688,1.1400293,4.2296047,8.780142,20231017_132313_576
689,1.0825489,4.2200246,8.732242,20231017_132313_578
690,1.0633887,4.181704,8.708291,20231017_132313_581
691,1.1112891,4.272715,8.693921,20231017_132313_583
692,1.0825489,4.2056546,8.722662,20231017_132313_586
693,1.0538087,4.258345,8.804092,20231017_132313_589
694,1.0633887,4.157754,8.746612,20231017_132313_590
695,1.0346485,4.263135,8.746612,20231017_132313_594
696,1.1304493,4.296665,8.737032,20231017_132313_597
697,1.0490186,4.263135,8.808882,20231017_132313_599
698,1.0729688,4.2343946,8.737032,20231017_132313_601
699,1.0681788,4.272715,8.775352,20231017_132313_603
700,1.092129,4.253555,8.703502,20231017_132313_606
701,1.1064991,4.3158255,8.760982,20231017_132313_608
702,1.1400293,4.311035,8.756192,20231017_132313_611
703,1.092129,4.272715,8.732242,20231017_132313_613
704,1.1208692,4.272715,8.727451,20231017_132313_616
705,1.0585986,4.3014555,8.813672,20231017_132313_619
706,1.0873389,4.272715,8.741821,20231017_132313_621
707,1.0873389,4.296665,8.842413,20231017_132313_623
708,1.0154883,4.258345,8.875943,20231017_132313_626
709,1.0681788,4.258345,8.837623,20231017_132313_629
710,1.1256592,4.176914,8.847202,20231017_132313_631
711,1.101709,4.2104445,8.866363,20231017_132313_634
712,1.1160791,4.2104445,8.808882,20231017_132313_636
713,1.0250684,4.2008643,8.813672,20231017_132313_638
714,1.101709,4.157754,8.751402,20231017_132313_641
715,1.0633887,4.167334,8.794512,20231017_132313_643
716,1.0250684,4.1864944,8.756192,20231017_132313_646
717,1.0729688,4.138594,8.765772,20231017_132313_649
718,1.0250684,4.143384,8.856783,20231017_132313_652
719,1.0394385,4.167334,8.799302,20231017_132313_654
720,0.9915381,4.181704,8.760982,20231017_132313_657
721,1.0585986,4.1864944,8.808882,20231017_132313_659
722,0.96758795,4.263135,8.741821,20231017_132313_662
723,0.9915381,4.1721244,8.823253,20231017_132313_664
724,1.0442286,4.1960745,8.880733,20231017_132313_667
725,1.0202783,4.167334,8.923843,20231017_132313_669
726,0.9484278,4.1721244,8.866363,20231017_132313_672
727,1.0729688,4.1625443,8.880733,20231017_132313_674
728,1.0825489,4.148174,8.698711,20231017_132313_677
729,1.0154883,4.157754,8.832832,20231017_132313_679
730,1.0154883,4.181704,8.794512,20231017_132313_682
731,1.0729688,4.191284,8.818462,20231017_132313_684
732,1.0106983,4.181704,8.813672,20231017_132313_687
733,1.0633887,4.1721244,8.856783,20231017_132313_690
734,1.0681788,4.2152348,8.741821,20231017_132313_692
735,1.0394385,4.2008643,8.832832,20231017_132313_695
736,1.0633887,4.311035,8.751402,20231017_132313_697
737,1.0346485,4.272715,8.842413,20231017_132313_700
738,1.1352394,4.258345,8.933423,20231017_132313_702
739,1.0825489,4.2104445,8.794512,20231017_132313_705
740,1.1112891,4.1960745,8.784932,20231017_132313_707
741,1.1160791,4.272715,8.784932,20231017_132313_710
742,1.1304493,4.239185,8.861572,20231017_132313_712
743,1.0777588,4.1864944,8.880733,20231017_132313_715
744,1.1304493,4.258345,8.875943,20231017_132313_718
745,1.0490186,4.248765,8.871153,20231017_132313_720
746,1.0633887,4.2296047,8.8951025,20231017_132313_722
747,1.0154883,4.239185,8.842413,20231017_132313_725
748,1.0250684,4.2200246,8.804092,20231017_132313_728
749,1.0298585,4.2056546,8.799302,20231017_132313_730
750,1.0538087,4.296665,8.866363,20231017_132313_733
751,1.0633887,4.239185,8.890313,20231017_132313_735
752,1.1352394,4.2343946,8.861572,20231017_132313_738
753,1.1064991,4.3014555,8.837623,20231017_132313_740
754,1.0681788,4.3062453,8.8951025,20231017_132313_742
755,1.1160791,4.277505,8.919053,20231017_132313_745
756,1.1112891,4.277505,8.789722,20231017_132313_748
757,1.1400293,4.272715,8.885523,20231017_132313_751
758,1.0585986,4.267925,8.799302,20231017_132313_753
759,1.0154883,4.267925,8.818462,20231017_132313_756
760,1.0202783,4.311035,8.813672,20231017_132313_758
761,1.0873389,4.2008643,8.794512,20231017_132313_761
762,1.0346485,4.1864944,8.737032,20231017_132313_764
763,1.0346485,4.2008643,8.780142,20231017_132313_766
764,1.092129,4.2104445,8.756192,20231017_132313_768
765,1.0633887,4.157754,8.837623,20231017_132313_771
766,1.092129,4.296665,8.885523,20231017_132313_773
767,1.0777588,4.2200246,8.794512,20231017_132313_776
768,1.0729688,4.253555,8.823253,20231017_132313_778
769,1.0873389,4.258345,8.789722,20231017_132313_781
770,1.0729688,4.2439747,8.837623,20231017_132313_784
771,1.0777588,4.191284,8.756192,20231017_132313_786
772,1.0777588,4.239185,8.904683,20231017_132313_789
773,1.0681788,4.253555,8.851993,20231017_132313_791
774,1.1160791,4.2008643,8.875943,20231017_132313_794
775,1.096919,4.272715,8.847202,20231017_132313_796
776,1.0681788,4.2439747,8.904683,20231017_132313_799
777,1.096919,4.176914,8.971744,20231017_132313_801
778,1.0250684,4.129014,8.904683,20231017_132313_804
779,1.0825489,4.148174,8.866363,20231017_132313_807
780,1.0490186,4.253555,8.909473,20231017_132313_809
781,1.0154883,4.095484,8.919053,20231017_132313_811
782,1.0490186,4.1050634,8.933423,20231017_132313_814
783,1.0873389,4.119434,8.962164,20231017_132313_816
784,1.0729688,4.152964,8.971744,20231017_132313_819
785,1.0585986,4.129014,8.966953,20231017_132313_821
786,1.0777588,4.157754,8.947793,20231017_132313_824
787,1.0825489,4.157754,8.919053,20231017_132313_826
788,1.0490186,4.2104445,8.957374,20231017_132313_829
789,1.0585986,4.1721244,8.966953,20231017_132313_831
790,1.0250684,4.1721244,8.943004,20231017_132313_834
791,1.0346485,4.1721244,8.914263,20231017_132313_836
792,1.0011182,4.1625443,8.875943,20231017_132313_839
793,0.9963282,4.129014,8.885523,20231017_132313_841
794,0.9627979,4.239185,8.904683,20231017_132313_844
795,1.0298585,4.2056546,8.880733,20231017_132313_847
796,0.977168,4.1864944,8.789722,20231017_132313_849
797,0.9915381,4.2296047,8.871153,20231017_132313_857
798,0.9627979,4.152964,8.851993,20231017_132313_857
799,1.0250684,4.1721244,8.871153,20231017_132313_858
800,1.0346485,4.1960745,8.780142,20231017_132313_860
801,1.0538087,4.181704,8.808882,20231017_132313_862
802,1.0442286,4.272715,8.808882,20231017_132313_865
803,1.0011182,4.119434,8.780142,20231017_132313_867
804,1.0585986,4.2343946,8.775352,20231017_132313_870
805,1.0346485,4.1960745,8.813672,20231017_132313_872
806,1.0633887,4.2008643,8.756192,20231017_132313_876
807,0.9915381,4.2104445,8.741821,20231017_132313_878
808,0.8334668,4.2008643,8.746612,20231017_132313_880
809,1.0490186,4.1960745,8.727451,20231017_132313_882
810,1.0873389,4.176914,8.770562,20231017_132313_885
811,1.0729688,4.191284,8.727451,20231017_132313_887
812,1.1208692,4.1960745,8.693921,20231017_132313_890
813,1.101709,4.176914,8.689131,20231017_132313_892
814,1.1064991,4.2343946,8.703502,20231017_132313_895
815,1.1112891,4.181704,8.708291,20231017_132313_897
816,1.1352394,4.143384,8.737032,20231017_132313_900
817,1.101709,4.2248144,8.756192,20231017_132313_903
818,1.2022998,4.277505,8.741821,20231017_132313_906
819,1.1160791,4.2200246,8.756192,20231017_132313_908
820,1.092129,4.191284,8.804092,20231017_132313_911
821,1.0873389,4.311035,8.717872,20231017_132313_913
822,1.0633887,4.157754,8.722662,20231017_132313_916
823,1.1112891,4.1721244,8.813672,20231017_132313_918
824,1.0825489,4.2200246,8.832832,20231017_132313_920
825,1.1543995,4.2152348,8.746612,20231017_132313_923
826,1.1208692,4.2104445,8.746612,20231017_132313_925
827,1.1304493,4.157754,8.837623,20231017_132313_928
828,1.1112891,4.2152348,8.813672,20231017_132313_930
829,1.1256592,4.2008643,8.789722,20231017_132313_932
830,1.1112891,4.1721244,8.780142,20231017_132313_936
831,1.0442286,4.2343946,8.780142,20231017_132313_938
832,1.1064991,4.191284,8.746612,20231017_132313_940
833,1.1256592,4.2343946,8.770562,20231017_132313_943
834,1.1112891,4.2152348,8.842413,20231017_132313_945
835,1.1304493,4.2296047,8.775352,20231017_132313_948
836,1.0873389,4.2296047,8.813672,20231017_132313_950
837,1.0681788,4.267925,8.799302,20231017_132313_953
838,1.0538087,4.152964,8.837623,20231017_132313_956
839,1.0490186,4.1864944,8.885523,20231017_132313_958
840,1.0873389,4.263135,8.928633,20231017_132313_961
841,1.0106983,4.2008643,8.818462,20231017_132313_963
842,1.0538087,4.248765,8.933423,20231017_132313_966
843,1.0825489,4.1960745,8.890313,20231017_132313_968
844,1.0729688,4.296665,8.890313,20231017_132313_971
845,1.0729688,4.239185,8.856783,20231017_132313_974
846,1.1064991,4.2248144,8.837623,20231017_132313_976
847,1.0729688,4.2008643,8.875943,20231017_132313_978
848,1.0585986,4.1864944,8.923843,20231017_132313_980
849,1.0154883,4.2439747,8.885523,20231017_132313_983
850,1.0442286,4.191284,8.919053,20231017_132313_985
851,1.0538087,4.1625443,8.890313,20231017_132313_988
852,1.0729688,4.1960745,8.890313,20231017_132313_991
853,1.0633887,4.1864944,8.861572,20231017_132313_993
854,1.0011182,4.191284,8.8951025,20231017_132313_996
855,1.0729688,4.152964,8.8951025,20231017_132313_998
856,0.9963282,4.1721244,8.8951025,20231017_132314_001
857,1.0585986,4.1864944,8.914263,20231017_132314_003
858,1.0346485,4.191284,8.861572,20231017_132314_006
859,0.98195803,4.1960745,8.928633,20231017_132314_008
860,1.0825489,4.176914,8.837623,20231017_132314_011
861,0.9867481,4.152964,8.847202,20231017_132314_014
862,1.0202783,4.157754,8.861572,20231017_132314_016
863,1.0059083,4.2104445,8.794512,20231017_132314_019
864,1.0729688,4.181704,8.856783,20231017_132314_021
865,1.0442286,4.176914,8.847202,20231017_132314_024
866,0.9627979,4.2056546,8.837623,20231017_132314_027
867,1.0633887,4.143384,8.837623,20231017_132314_029
868,1.0825489,4.152964,8.813672,20231017_132314_032
869,1.0346485,4.176914,8.842413,20231017_132314_034
870,1.0538087,4.1050634,8.919053,20231017_132314_037
871,1.0681788,4.0811133,8.919053,20231017_132314_039
872,1.0681788,4.1050634,8.923843,20231017_132314_042
873,1.0202783,4.152964,8.851993,20231017_132314_044
874,0.9963282,4.148174,8.966953,20231017_132314_047
875,1.0633887,4.1721244,8.928633,20231017_132314_049
876,1.0202783,4.2296047,8.923843,20231017_132314_052
877,1.0394385,4.2152348,8.923843,20231017_132314_055
878,1.0538087,4.2200246,8.904683,20231017_132314_058
879,1.0298585,4.157754,8.904683,20231017_132314_059
880,1.0011182,4.248765,8.885523,20231017_132314_062
881,1.0681788,4.2152348,8.837623,20231017_132314_064
882,0.9532178,4.2152348,8.847202,20231017_132314_067
883,1.0490186,4.191284,8.909473,20231017_132314_071
884,1.0633887,4.3254056,8.880733,20231017_132314_073
885,1.096919,4.258345,8.780142,20231017_132314_075
886,1.0585986,4.3397756,8.804092,20231017_132314_078
887,1.0442286,4.3301954,8.828042,20231017_132314_081
888,1.0394385,4.253555,8.818462,20231017_132314_084
889,1.1112891,4.3637257,8.760982,20231017_132314_086
890,1.0394385,4.382886,8.789722,20231017_132314_088
891,1.0633887,4.239185,8.770562,20231017_132314_091
892,1.0538087,4.129014,8.861572,20231017_132314_093
893,1.0633887,4.152964,8.856783,20231017_132314_096
894,1.0202783,4.1625443,8.919053,20231017_132314_098
895,1.0585986,3.999683,8.875943,20231017_132314_101
896,1.0681788,3.9422023,8.875943,20231017_132314_103
897,1.0394385,3.9805226,8.866363,20231017_132314_107
898,1.1208692,3.9326222,8.890313,20231017_132314_108
899,1.1591895,4.028423,8.808882,20231017_132314_111
900,1.1208692,4.033213,8.823253,20231017_132314_114
901,1.096919,4.0571632,8.847202,20231017_132314_116
902,1.1256592,4.061953,8.780142,20231017_132314_119
903,1.1496094,4.095484,8.818462,20231017_132314_121
904,1.0346485,4.119434,8.808882,20231017_132314_123
905,1.0777588,4.1721244,8.899893,20231017_132314_126
906,1.0011182,4.239185,8.871153,20231017_132314_132
907,1.0442286,4.272715,8.8951025,20231017_132314_132
908,1.0729688,4.2104445,8.923843,20231017_132314_133
909,1.0154883,4.248765,8.914263,20231017_132314_136
910,1.0442286,4.416416,8.990904,20231017_132314_138
911,1.0777588,4.4499464,8.938213,20231017_132314_141
912,1.0298585,4.4212065,8.909473,20231017_132314_143
913,1.0346485,4.430786,9.029224,20231017_132314_145
914,0.9915381,4.392466,8.957374,20231017_132314_148
915,1.0346485,4.4212065,8.923843,20231017_132314_151
916,0.9915381,4.3397756,8.914263,20231017_132314_154
917,1.0442286,4.2918754,8.866363,20231017_132314_161
918,1.101709,4.311035,8.775352,20231017_132314_162
919,1.0633887,4.157754,8.737032,20231017_132314_162
920,1.0825489,4.1146436,8.765772,20231017_132314_163
921,1.1400293,4.018843,8.660391,20231017_132314_166
922,1.0873389,4.0427933,8.693921,20231017_132314_169
923,1.0729688,3.9901028,8.636441,20231017_132314_171
924,1.0442286,3.9469924,8.698711,20231017_132314_174
925,1.0538087,4.023633,8.669971,20231017_132314_176
926,1.0538087,4.033213,8.741821,20231017_132314_179
927,1.0681788,3.9517825,8.713081,20231017_132314_181
928,1.0777588,4.1050634,8.737032,20231017_132314_183
929,1.092129,4.1146436,8.780142,20231017_132314_190
930,1.0585986,4.119434,8.828042,20231017_132314_190
931,1.0394385,4.1098537,8.765772,20231017_132314_192
932,1.0777588,4.2104445,8.851993,20231017_132314_194
933,1.0442286,4.167334,8.775352,20231017_132314_196
934,1.0777588,4.138594,8.751402,20231017_132314_199
935,1.0777588,4.1002736,8.789722,20231017_132314_201
936,1.0538087,4.148174,8.842413,20231017_132314_204
937,1.0394385,4.143384,8.823253,20231017_132314_207
938,1.0825489,4.1625443,8.813672,20231017_132314_209
939,1.0442286,4.143384,8.804092,20231017_132314_212
940,1.0394385,4.2296047,8.784932,20231017_132314_218
941,1.0346485,4.248765,8.756192,20231017_132314_219
942,1.0202783,4.2343946,8.789722,20231017_132314_220
943,1.0346485,4.277505,8.775352,20231017_132314_222
944,1.0394385,4.3254056,8.818462,20231017_132314_224
945,1.0442286,4.3349857,8.828042,20231017_132314_227
946,1.0585986,4.3493557,8.813672,20231017_132314_229
947,1.0202783,4.3158255,8.804092,20231017_132314_232
948,1.0154883,4.2918754,8.794512,20231017_132314_234
949,1.0154883,4.3541455,8.875943,20231017_132314_237
950,1.0154883,4.2918754,8.899893,20231017_132314_240
951,1.0059083,4.3541455,8.828042,20231017_132314_242
952,1.0106983,4.3014555,8.861572,20231017_132314_249
953,1.0346485,4.2200246,8.837623,20231017_132314_251
954,0.96758795,4.263135,8.847202,20231017_132314_251
955,0.97237796,4.2152348,8.875943,20231017_132314_252
956,0.9484278,4.3014555,8.8951025,20231017_132314_255
957,1.0106983,4.1960745,8.890313,20231017_132314_258
958,0.977168,4.1721244,8.899893,20231017_132314_260
959,1.0059083,4.181704,8.851993,20231017_132314_262
960,0.98195803,4.2152348,8.818462,20231017_132314_265
961,0.9963282,4.2200246,8.861572,20231017_132314_267
962,0.98195803,4.176914,8.856783,20231017_132314_270
963,1.0633887,4.2152348,8.866363,20231017_132314_272
964,1.0825489,4.2296047,8.784932,20231017_132314_280
965,1.0538087,4.152964,8.775352,20231017_132314_281
966,1.0346485,4.248765,8.784932,20231017_132314_281
967,1.0585986,4.2918754,8.813672,20231017_132314_282
968,1.096919,4.2104445,8.823253,20231017_132314_285
969,1.0633887,4.2439747,8.770562,20231017_132314_288
970,1.0729688,4.2104445,8.818462,20231017_132314_290
971,1.0825489,4.2248144,8.732242,20231017_132314_293
972,1.0538087,4.2343946,8.808882,20231017_132314_295
973,1.1208692,4.282295,8.794512,20231017_132314_297
974,1.1160791,4.1960745,8.832832,20231017_132314_300
975,1.1304493,4.2439747,8.789722,20231017_132314_302
976,1.1112891,4.277505,8.799302,20231017_132314_310
977,1.1112891,4.3206153,8.837623,20231017_132314_311
978,1.1208692,4.296665,8.775352,20231017_132314_311
979,1.1256592,4.277505,8.861572,20231017_132314_313
980,1.0346485,4.272715,8.847202,20231017_132314_315
981,1.1927198,4.2918754,8.804092,20231017_132314_319
982,1.1160791,4.282295,8.837623,20231017_132314_321
983,1.1591895,4.277505,8.741821,20231017_132314_323
984,1.1256592,4.248765,8.760982,20231017_132314_325
985,1.1352394,4.263135,8.784932,20231017_132314_328
986,1.1112891,4.272715,8.746612,20231017_132314_331
987,1.1160791,4.248765,8.727451,20231017_132314_334
988,1.1352394,4.239185,8.722662,20231017_132314_341
989,1.0777588,4.258345,8.612491,20231017_132314_342
990,1.101709,4.1625443,8.655601,20231017_132314_342
991,1.101709,4.1960745,8.650811,20231017_132314_344
992,1.1112891,4.2439747,8.708291,20231017_132314_346
993,1.0633887,4.2008643,8.698711,20231017_132314_349
994,1.0490186,4.2296047,8.698711,20231017_132314_351
995,1.0490186,4.2152348,8.602911,20231017_132314_357
996,0.9915381,4.181704,8.641231,20231017_132314_358
997,1.0825489,4.2056546,8.717872,20231017_132314_359
998,1.0490186,4.1960745,8.732242,20231017_132314_362
999,1.0729688,4.2056546,8.837623,20231017_132314_365
1000,1.0585986,4.167334,8.842413,20231017_132314_373
1001,1.1112891,4.157754,8.818462,20231017_132314_373
1002,1.0298585,4.1242237,8.875943,20231017_132314_374
1003,1.092129,4.148174,8.780142,20231017_132314_375
1004,1.0298585,4.167334,8.861572,20231017_132314_377
1005,1.0394385,4.239185,8.890313,20231017_132314_379
1006,1.0490186,4.2248144,8.856783,20231017_132314_382
1007,1.0394385,4.2296047,8.856783,20231017_132314_383
1008,1.0681788,4.239185,8.899893,20231017_132314_387
1009,1.0442286,4.282295,8.856783,20231017_132314_389
1010,1.1160791,4.258345,8.8951025,20231017_132314_391
1011,1.1304493,4.287085,8.875943,20231017_132314_394
1012,1.1400293,4.2439747,8.909473,20231017_132314_397
1013,1.101709,4.287085,8.823253,20231017_132314_403
1014,1.1543995,4.2918754,8.851993,20231017_132314_405
1015,1.1112891,4.2248144,8.943004,20231017_132314_405
1016,1.1304493,4.3301954,8.890313,20231017_132314_406
1017,1.096919,4.263135,8.976534,20231017_132314_409
1018,1.0585986,4.2200246,8.885523,20231017_132314_412
1019,1.096919,4.2152348,8.919053,20231017_132314_414
1020,1.0681788,4.167334,9.005274,20231017_132314_417
1021,1.0777588,4.2152348,8.928633,20231017_132314_419
1022,1.0346485,4.0906935,8.986114,20231017_132314_421
1023,1.0681788,4.1721244,8.943004,20231017_132314_424
1024,1.0729688,4.0859036,9.034014,20231017_132314_427
1025,1.0394385,4.143384,8.971744,20231017_132314_435
1026,1.101709,4.143384,8.923843,20231017_132314_435
1027,1.0681788,4.1721244,9.0004835,20231017_132314_436
1028,1.0825489,4.176914,8.966953,20231017_132314_437
1029,1.0585986,4.2248144,8.947793,20231017_132314_439
1030,0.9627979,4.277505,8.971744,20231017_132314_442
1031,1.0585986,4.152964,8.971744,20231017_132314_445
1032,1.0490186,4.1960745,8.962164,20231017_132314_447
1033,1.0729688,4.129014,8.947793,20231017_132314_450
1034,1.0825489,4.167334,9.019644,20231017_132314_452
1035,1.0729688,4.167334,8.981323,20231017_132314_455
1036,1.0873389,4.1002736,8.933423,20231017_132314_457
1037,1.1256592,4.1625443,8.986114,20231017_132314_465
1038,1.0729688,4.167334,8.952583,20231017_132314_467
1039,1.0681788,4.152964,8.966953,20231017_132314_468
1040,1.0394385,4.267925,8.832832,20231017_132314_469
1041,1.0825489,4.2056546,8.909473,20231017_132314_470
1042,1.096919,4.133804,8.885523,20231017_132314_473
1043,1.0681788,4.2248144,8.928633,20231017_132314_475
1044,1.0585986,4.2104445,8.914263,20231017_132314_478
1045,1.0250684,4.2104445,8.851993,20231017_132314_480
1046,1.0298585,4.2104445,8.909473,20231017_132314_483
1047,0.98195803,4.2248144,8.880733,20231017_132314_485
1048,1.1064991,4.248765,8.919053,20231017_132314_488
1049,1.0538087,4.2104445,8.923843,20231017_132314_496
1050,1.0729688,4.296665,8.837623,20231017_132314_497
1051,1.0011182,4.2008643,8.919053,20231017_132314_498
1052,1.0681788,4.2248144,8.981323,20231017_132314_498
1053,1.0394385,4.138594,8.856783,20231017_132314_500
1054,1.0442286,4.3206153,8.871153,20231017_132314_502
1055,0.9867481,4.191284,8.861572,20231017_132314_505
1056,1.0250684,4.2056546,8.832832,20231017_132314_508
1057,1.1064991,4.167334,8.794512,20231017_132314_511
1058,1.0729688,4.191284,8.784932,20231017_132314_513
1059,1.0681788,4.2104445,8.861572,20231017_132314_516
1060,1.1064991,4.157754,8.866363,20231017_132314_518
1061,1.0538087,4.272715,8.808882,20231017_132314_528
1062,1.0633887,4.2152348,8.828042,20231017_132314_529
1063,1.0633887,4.2296047,8.823253,20231017_132314_530
1064,1.0538087,4.282295,8.713081,20231017_132314_530
1065,1.1064991,4.2248144,8.756192,20231017_132314_531
1066,1.1064991,4.2248144,8.760982,20231017_132314_534
1067,1.1352394,4.157754,8.799302,20231017_132314_536
1068,1.1352394,4.277505,8.636441,20231017_132314_540
1069,1.096919,4.2343946,8.717872,20231017_132314_542
1070,1.1591895,4.2104445,8.58854,20231017_132314_545
1071,1.1304493,4.2200246,8.679551,20231017_132314_548
1072,1.1639795,4.258345,8.631651,20231017_132314_550
1073,1.1543995,4.1864944,8.727451,20231017_132314_552
1074,1.1160791,4.263135,8.703502,20231017_132314_562
1075,1.092129,4.2343946,8.756192,20231017_132314_563
1076,1.1160791,4.253555,8.665181,20231017_132314_564
1077,1.092129,4.272715,8.650811,20231017_132314_565
1078,1.1400293,4.1960745,8.727451,20231017_132314_565
1079,1.0777588,4.2200246,8.617281,20231017_132314_567
1080,1.0538087,4.258345,8.646021,20231017_132314_569
1081,1.092129,4.2152348,8.636441,20231017_132314_572
1082,1.0298585,4.239185,8.669971,20231017_132314_575
1083,1.092129,4.282295,8.684341,20231017_132314_577
1084,1.0298585,4.167334,8.669971,20231017_132314_580
1085,1.0777588,4.1242237,8.713081,20231017_132314_582
1086,1.0250684,4.1625443,8.751402,20231017_132314_585
1087,1.0106983,4.133804,8.794512,20231017_132314_587
1088,1.0346485,4.272715,8.866363,20231017_132314_590
1089,1.0490186,4.148174,8.856783,20231017_132314_592
1090,1.0585986,4.138594,8.923843,20231017_132314_595
1091,1.1112891,4.167334,8.904683,20231017_132314_597
1092,1.101709,4.138594,8.880733,20231017_132314_600
1093,1.0825489,4.2104445,8.943004,20231017_132314_602
1094,1.0298585,4.148174,8.957374,20231017_132314_605
1095,1.0729688,4.138594,8.890313,20231017_132314_608
1096,1.0394385,4.1625443,8.909473,20231017_132314_611
1097,0.9436377,4.138594,8.919053,20231017_132314_613
1098,1.0059083,4.167334,8.923843,20231017_132314_615
1099,1.0202783,4.148174,8.986114,20231017_132314_617
1100,1.0825489,4.1960745,8.933423,20231017_132314_620
1101,1.0202783,4.1721244,8.919053,20231017_132314_623
1102,0.98195803,4.2008643,8.899893,20231017_132314_625
1103,1.0490186,4.2248144,9.0004835,20231017_132314_627
1104,1.0059083,4.282295,8.957374,20231017_132314_630
1105,0.97237796,4.2152348,8.981323,20231017_132314_632
1106,1.0346485,4.2343946,8.938213,20231017_132314_634
1107,1.0585986,4.148174,8.928633,20231017_132314_637
1108,1.0059083,4.1864944,8.952583,20231017_132314_639
1109,1.0490186,4.148174,8.890313,20231017_132314_642
1110,0.96758795,4.167334,8.890313,20231017_132314_644
1111,0.97237796,4.181704,8.909473,20231017_132314_647
1112,1.0490186,4.2056546,8.871153,20231017_132314_650
1113,0.9867481,4.2104445,8.794512,20231017_132314_652
1114,1.0250684,4.2296047,8.804092,20231017_132314_655
1115,1.0394385,4.2439747,8.851993,20231017_132314_657
1116,1.1112891,4.2056546,8.808882,20231017_132314_660
1117,1.0538087,4.3062453,8.866363,20231017_132314_662
1118,1.0633887,4.2152348,8.813672,20231017_132314_665
1119,1.1112891,4.2439747,8.842413,20231017_132314_667
1120,1.0825489,4.282295,8.794512,20231017_132314_670
1121,1.096919,4.272715,8.832832,20231017_132314_672
1122,1.0681788,4.3158255,8.794512,20231017_132314_675
1123,1.0777588,4.282295,8.837623,20231017_132314_677
1124,1.1064991,4.2248144,8.875943,20231017_132314_680
1125,1.1112891,4.2200246,8.828042,20231017_132314_682
1126,1.1208692,4.2439747,8.880733,20231017_132314_685
1127,1.1400293,4.2343946,8.789722,20231017_132314_688
1128,1.1352394,4.267925,8.765772,20231017_132314_690
1129,1.1112891,4.272715,8.828042,20231017_132314_693
1130,1.1448194,4.2248144,8.775352,20231017_132314_695
1131,1.0729688,4.181704,8.751402,20231017_132314_698
1132,1.1256592,4.253555,8.789722,20231017_132314_700
1133,1.1160791,4.1960745,8.713081,20231017_132314_702
1134,1.1208692,4.239185,8.775352,20231017_132314_705
1135,1.1591895,4.2439747,8.751402,20231017_132314_708
1136,1.1352394,4.239185,8.780142,20231017_132314_711
1137,1.1927198,4.2008643,8.775352,20231017_132314_713
1138,1.1208692,4.1864944,8.847202,20231017_132314_715
1139,1.1400293,4.181704,8.923843,20231017_132314_718
1140,1.1304493,4.3301954,8.856783,20231017_132314_721
1141,1.1256592,4.2056546,8.904683,20231017_132314_723
1142,1.0538087,4.1960745,8.780142,20231017_132314_726
1143,1.0729688,4.2296047,8.837623,20231017_132314_728
1144,1.0442286,4.2056546,8.804092,20231017_132314_731
1145,1.0729688,4.263135,8.775352,20231017_132314_734
1146,1.0825489,4.157754,8.794512,20231017_132314_736
1147,1.0442286,4.1960745,8.813672,20231017_132314_738
1148,1.0298585,4.1960745,8.813672,20231017_132314_741
1149,1.0346485,4.191284,8.799302,20231017_132314_743
1150,0.9963282,4.277505,8.799302,20231017_132314_746
1151,0.9963282,4.1864944,8.784932,20231017_132314_749
1152,1.0250684,4.1864944,8.813672,20231017_132314_751
1153,1.0298585,4.2200246,8.789722,20231017_132314_754
1154,1.0490186,4.272715,8.842413,20231017_132314_757
1155,1.0059083,4.143384,8.780142,20231017_132314_759
1156,0.9963282,4.2248144,8.799302,20231017_132314_761
1157,1.0346485,4.282295,8.832832,20231017_132314_764
1158,1.0633887,4.2152348,8.789722,20231017_132314_767
1159,1.0681788,4.2343946,8.871153,20231017_132314_769
1160,1.0729688,4.253555,8.770562,20231017_132314_772
1161,1.0585986,4.176914,8.832832,20231017_132314_774
1162,1.0729688,4.2439747,8.856783,20231017_132314_777
1163,1.0346485,4.191284,8.837623,20231017_132314_779
1164,1.0633887,4.2343946,8.880733,20231017_132314_782
1165,1.0681788,4.2200246,8.775352,20231017_132314_785
1166,1.0298585,4.1721244,8.804092,20231017_132314_787
1167,1.0202783,4.2104445,8.861572,20231017_132314_789
1168,0.9963282,4.167334,8.914263,20231017_132314_792
1169,0.98195803,4.1721244,8.875943,20231017_132314_794
1170,1.0538087,4.176914,8.818462,20231017_132314_797
1171,1.0777588,4.2056546,8.751402,20231017_132314_800
1172,1.092129,4.191284,8.823253,20231017_132314_802
1173,1.096919,4.2296047,8.885523,20231017_132314_804
1174,1.0585986,4.2343946,8.813672,20231017_132314_808
1175,1.0346485,4.2056546,8.818462,20231017_132314_809
1176,1.0585986,4.253555,8.775352,20231017_132314_812
1177,1.1160791,4.248765,8.818462,20231017_132314_814
1178,1.1112891,4.267925,8.851993,20231017_132314_817
1179,1.0490186,4.3014555,8.780142,20231017_132314_819
1180,1.0538087,4.2439747,8.746612,20231017_132314_822
1181,1.0729688,4.2439747,8.856783,20231017_132314_825
1182,1.0298585,4.296665,8.871153,20231017_132314_827
1183,1.101709,4.2248144,8.794512,20231017_132314_830
1184,1.0250684,4.181704,8.794512,20231017_132314_832
1185,1.0106983,4.2248144,8.770562,20231017_132314_835
1186,1.0298585,4.258345,8.842413,20231017_132314_838
1187,1.0585986,4.181704,8.851993,20231017_132314_840
1188,1.0729688,4.2200246,8.780142,20231017_132314_843
1189,1.0394385,4.157754,8.760982,20231017_132314_845
1190,1.1256592,4.191284,8.784932,20231017_132314_847
1191,1.0777588,4.2439747,8.760982,20231017_132314_850
1192,1.096919,4.2343946,8.842413,20231017_132314_852
1193,1.1064991,4.1960745,8.875943,20231017_132314_857
1194,1.0585986,4.176914,8.842413,20231017_132314_858
1195,1.0681788,4.1960745,8.871153,20231017_132314_861
1196,1.0298585,4.2296047,8.832832,20231017_132314_863
1197,1.0154883,4.2439747,8.832832,20231017_132314_866
1198,1.0538087,4.282295,8.808882,20231017_132314_868
1199,1.101709,4.181704,8.890313,20231017_132314_870
1200,1.1160791,4.2296047,8.861572,20231017_132314_873
1201,1.0825489,4.239185,8.880733,20231017_132314_876
1202,1.0681788,4.2200246,8.856783,20231017_132314_878
1203,1.0538087,4.282295,8.866363,20231017_132314_881
1204,1.0633887,4.253555,8.8951025,20231017_132314_883
1205,1.0873389,4.3062453,8.871153,20231017_132314_885
1206,1.0729688,4.382886,8.875943,20231017_132314_888
1207,1.0825489,4.373306,8.851993,20231017_132314_891
1208,0.9867481,4.3397756,8.851993,20231017_132314_893
1209,0.9963282,4.392466,8.808882,20231017_132314_896
1210,1.0538087,4.3301954,8.851993,20231017_132314_898
1211,1.0490186,4.311035,8.765772,20231017_132314_901
1212,1.0442286,4.1864944,8.780142,20231017_132314_903
1213,1.0777588,4.2200246,8.837623,20231017_132314_906
1214,1.0106983,4.1146436,8.8951025,20231017_132314_909
1215,1.0059083,4.071533,8.703502,20231017_132314_911
1216,1.0825489,4.061953,8.875943,20231017_132314_913
1217,1.0585986,3.9901028,8.828042,20231017_132314_916
1218,1.0346485,4.033213,8.837623,20231017_132314_918
1219,1.0585986,3.9948928,8.847202,20231017_132314_921
1220,1.1208692,4.0427933,8.8951025,20231017_132314_923
1221,1.1543995,4.061953,8.8951025,20231017_132314_926
1222,1.1160791,4.133804,8.904683,20231017_132314_929
1223,1.101709,4.1242237,8.914263,20231017_132314_931
1224,1.0059083,4.143384,8.909473,20231017_132314_934
1225,1.0633887,4.181704,8.952583,20231017_132314_936
1226,1.0394385,4.167334,8.943004,20231017_132314_939
1227,1.0346485,4.258345,8.919053,20231017_132314_941
1228,1.0729688,4.2296047,8.947793,20231017_132314_944
1229,1.0346485,4.282295,8.8951025,20231017_132314_947
1230,1.0825489,4.4116263,8.823253,20231017_132314_950
1231,1.0538087,4.526587,8.799302,20231017_132314_952
1232,1.0154883,4.5840673,8.832832,20231017_132314_954
1233,1.0202783,4.617598,8.818462,20231017_132314_957
1234,1.0681788,4.5744877,8.741821,20231017_132314_960
1235,1.0202783,4.5457473,8.765772,20231017_132314_962
1236,1.0442286,4.5409575,8.751402,20231017_132314_964
1237,1.0777588,4.4403663,8.765772,20231017_132314_967
1238,1.1591895,4.3541455,8.760982,20231017_132314_970
1239,1.0873389,4.2296047,8.804092,20231017_132314_973
1240,1.1639795,4.1050634,8.851993,20231017_132314_974
1241,1.21188,4.119434,8.698711,20231017_132314_977
1242,1.1112891,4.0044727,8.756192,20231017_132314_980
1243,1.1304493,4.0906935,8.760982,20231017_132314_983
1244,1.1543995,4.0044727,8.789722,20231017_132314_985
1245,1.0873389,4.061953,8.717872,20231017_132314_988
1246,1.1064991,4.1098537,8.732242,20231017_132314_990
1247,1.1112891,4.0667434,8.732242,20231017_132314_992
1248,1.0585986,4.1625443,8.717872,20231017_132314_995
1249,1.1352394,4.1146436,8.760982,20231017_132314_998
1250,1.0777588,4.143384,8.655601,20231017_132315_000
1251,1.101709,4.1050634,8.722662,20231017_132315_002
1252,1.1208692,4.1146436,8.722662,20231017_132315_005
1253,1.101709,4.143384,8.679551,20231017_132315_007
1254,1.1591895,4.176914,8.746612,20231017_132315_010
1255,1.1448194,4.1960745,8.780142,20231017_132315_013
1256,1.1831397,4.2343946,8.760982,20231017_132315_015
1257,1.0633887,4.148174,8.727451,20231017_132315_018
1258,1.0681788,4.2152348,8.732242,20231017_132315_020
1259,1.0777588,4.287085,8.732242,20231017_132315_022
1260,1.0298585,4.2056546,8.669971,20231017_132315_025
1261,1.0538087,4.1864944,8.737032,20231017_132315_027
1262,1.0250684,4.267925,8.746612,20231017_132315_030
1263,1.0490186,4.2104445,8.717872,20231017_132315_033
1264,0.9915381,4.3254056,8.732242,20231017_132315_035
1265,1.092129,4.277505,8.722662,20231017_132315_038
1266,1.0442286,4.2918754,8.703502,20231017_132315_040
1267,1.0106983,4.3397756,8.713081,20231017_132315_042
1268,0.9963282,4.3254056,8.684341,20231017_132315_045
1269,0.9963282,4.378096,8.693921,20231017_132315_048
1270,1.0394385,4.3158255,8.784932,20231017_132315_050
1271,1.0298585,4.373306,8.899893,20231017_132315_053
1272,1.0825489,4.4116263,8.780142,20231017_132315_055
1273,1.0106983,4.3637257,8.837623,20231017_132315_058
1274,1.0106983,4.258345,8.875943,20231017_132315_060
1275,1.0011182,4.2918754,8.875943,20231017_132315_063
1276,0.9915381,4.3062453,8.808882,20231017_132315_065
1277,1.0011182,4.3014555,8.861572,20231017_132315_068
1278,1.0250684,4.277505,8.818462,20231017_132315_071
1279,1.0202783,4.258345,8.794512,20231017_132315_073
1280,1.0106983,4.267925,8.804092,20231017_132315_075
1281,1.0346485,4.277505,8.847202,20231017_132315_078
1282,0.9963282,4.282295,8.861572,20231017_132315_081
1283,1.0011182,4.191284,8.828042,20231017_132315_083
1284,1.0011182,4.263135,8.808882,20231017_132315_086
1285,1.0106983,4.2104445,8.842413,20231017_132315_088
1286,1.0154883,4.2248144,8.851993,20231017_132315_091
1287,1.0442286,4.2439747,8.904683,20231017_132315_093
1288,1.0202783,4.2104445,8.890313,20231017_132315_096
1289,1.0538087,4.095484,8.957374,20231017_132315_099
1290,1.0777588,4.2152348,8.909473,20231017_132315_101
1291,1.0298585,4.2056546,8.971744,20231017_132315_104
1292,1.0346485,4.1721244,8.971744,20231017_132315_106
1293,1.0585986,4.157754,8.947793,20231017_132315_109
1294,0.9915381,4.176914,8.842413,20231017_132315_111
1295,1.0442286,4.2104445,8.919053,20231017_132315_114
1296,1.0777588,4.2104445,8.890313,20231017_132315_116
1297,1.0873389,4.2439747,8.880733,20231017_132315_119
1298,1.0825489,4.2152348,8.928633,20231017_132315_121
1299,1.0346485,4.2343946,8.962164,20231017_132315_124
1300,1.0633887,4.358936,9.019644,20231017_132315_126
1301,1.1064991,4.2056546,8.914263,20231017_132315_129
1302,1.0538087,4.2343946,8.928633,20231017_132315_132
1303,1.0442286,4.3254056,8.899893,20231017_132315_134
1304,1.1112891,4.287085,8.923843,20231017_132315_137
1305,1.0394385,4.258345,8.933423,20231017_132315_140
1306,1.0873389,4.2439747,8.938213,20231017_132315_142
1307,1.0394385,4.382886,8.923843,20231017_132315_144
1308,1.0059083,4.267925,8.8951025,20231017_132315_147
1309,1.0202783,4.258345,8.890313,20231017_132315_149
1310,1.0681788,4.3206153,8.8951025,20231017_132315_152
1311,1.0873389,4.3062453,8.8951025,20231017_132315_155
1312,1.101709,4.258345,8.804092,20231017_132315_157
1313,1.096919,4.2918754,8.851993,20231017_132315_159
1314,1.092129,4.3206153,8.813672,20231017_132315_162
1315,1.0585986,4.258345,8.914263,20231017_132315_165
1316,1.1160791,4.3445654,8.832832,20231017_132315_167
1317,1.092129,4.2439747,8.871153,20231017_132315_170
1318,1.0681788,4.3254056,8.808882,20231017_132315_173
1319,1.0538087,4.272715,8.871153,20231017_132315_175
1320,1.0538087,4.2248144,8.818462,20231017_132315_178
1321,1.1064991,4.3014555,8.832832,20231017_132315_180
1322,1.0154883,4.282295,8.775352,20231017_132315_184
1323,1.096919,4.239185,8.837623,20231017_132315_185
1324,1.092129,4.282295,8.828042,20231017_132315_187
1325,1.0873389,4.2248144,8.813672,20231017_132315_190
1326,0.98195803,4.267925,8.784932,20231017_132315_193
1327,1.0633887,4.253555,8.789722,20231017_132315_195
1328,1.0873389,4.3062453,8.799302,20231017_132315_198
1329,1.0442286,4.3014555,8.775352,20231017_132315_200
1330,1.0346485,4.3397756,8.727451,20231017_132315_203
1331,1.0346485,4.2439747,8.789722,20231017_132315_205
1332,1.0633887,4.358936,8.693921,20231017_132315_207
1333,1.0825489,4.3637257,8.789722,20231017_132315_210
1334,1.0873389,4.3445654,8.847202,20231017_132315_212
1335,1.0346485,4.406836,8.756192,20231017_132315_215
1336,1.0154883,4.3493557,8.689131,20231017_132315_217
1337,1.1256592,4.3014555,8.818462,20231017_132315_219
1338,1.0346485,4.3062453,8.765772,20231017_132315_222
1339,1.0154883,4.3014555,8.760982,20231017_132315_225
1340,1.0059083,4.267925,8.851993,20231017_132315_227
1341,1.0394385,4.2918754,8.837623,20231017_132315_230
1342,1.0490186,4.311035,8.784932,20231017_132315_233
1343,1.096919,4.2152348,8.823253,20231017_132315_235
1344,1.0538087,4.287085,8.813672,20231017_132315_237
1345,1.0873389,4.1960745,8.746612,20231017_132315_240
1346,1.0729688,4.191284,8.813672,20231017_132315_242
1347,1.101709,4.1960745,8.770562,20231017_132315_245
1348,1.0442286,4.2343946,8.765772,20231017_132315_248
1349,1.0202783,4.148174,8.756192,20231017_132315_250
1350,1.0250684,4.2248144,8.832832,20231017_132315_253
1351,1.0154883,4.2104445,8.789722,20231017_132315_256
1352,1.0011182,4.2104445,8.746612,20231017_132315_259
1353,1.092129,4.2248144,8.832832,20231017_132315_261
1354,0.977168,4.272715,8.832832,20231017_132315_264
1355,0.96758795,4.1721244,8.842413,20231017_132315_266
1356,1.0442286,4.2296047,8.784932,20231017_132315_269
1357,1.0298585,4.1864944,8.871153,20231017_132315_271
1358,0.9963282,4.1960745,8.808882,20231017_132315_274
1359,0.9627979,4.181704,8.851993,20231017_132315_276
1360,1.0729688,4.1960745,8.861572,20231017_132315_279
1361,1.0538087,4.2343946,8.813672,20231017_132315_281
1362,1.0154883,4.277505,8.842413,20231017_132315_284
1363,1.0011182,4.248765,8.804092,20231017_132315_286
1364,1.0202783,4.263135,8.746612,20231017_132315_289
1365,1.0346485,4.2439747,8.842413,20231017_132315_291
1366,1.0585986,4.277505,8.823253,20231017_132315_294
1367,1.1064991,4.2200246,8.794512,20231017_132315_297
1368,1.0202783,4.2200246,8.789722,20231017_132315_299
1369,1.092129,4.181704,8.866363,20231017_132315_302
1370,1.0729688,4.2343946,8.813672,20231017_132315_305
1371,1.0394385,4.267925,8.818462,20231017_132315_306
1372,1.0633887,4.3206153,8.828042,20231017_132315_309
1373,1.0442286,4.3206153,8.784932,20231017_132315_311
1374,1.0729688,4.3206153,8.890313,20231017_132315_314
1375,1.0442286,4.296665,8.823253,20231017_132315_316
1376,1.0442286,4.3445654,8.828042,20231017_132315_319
1377,1.0346485,4.3637257,8.851993,20231017_132315_321
1378,1.1112891,4.358936,8.832832,20231017_132315_324
1379,1.0585986,4.368516,8.880733,20231017_132315_326
1380,1.0490186,4.3541455,8.880733,20231017_132315_329
1381,1.0298585,4.382886,8.909473,20231017_132315_331
1382,1.0585986,4.3637257,8.842413,20231017_132315_334
1383,1.0202783,4.416416,8.818462,20231017_132315_336
1384,1.0825489,4.378096,8.741821,20231017_132315_339
1385,1.0394385,4.3349857,8.799302,20231017_132315_341
1386,1.0633887,4.3397756,8.780142,20231017_132315_344
1387,1.0729688,4.382886,8.775352,20231017_132315_346
1388,1.0154883,4.296665,8.789722,20231017_132315_349
1389,1.0777588,4.3062453,8.832832,20231017_132315_351
1390,1.0777588,4.287085,8.804092,20231017_132315_357
1391,1.0059083,4.3349857,8.770562,20231017_132315_357
1392,1.0154883,4.3158255,8.765772,20231017_132315_359
1393,1.0729688,4.416416,8.775352,20231017_132315_362
1394,1.0681788,4.3254056,8.780142,20231017_132315_366
1395,1.0298585,4.3158255,8.780142,20231017_132315_367
1396,1.0825489,4.3301954,8.751402,20231017_132315_369
1397,1.0202783,4.3206153,8.689131,20231017_132315_372
1398,1.0106983,4.3206153,8.751402,20231017_132315_375
1399,1.0825489,4.368516,8.679551,20231017_132315_378
1400,1.1160791,4.3014555,8.698711,20231017_132315_380
1401,1.1112891,4.2918754,8.737032,20231017_132315_382
1402,1.0394385,4.3637257,8.828042,20231017_132315_385
1403,1.1112891,4.3158255,8.837623,20231017_132315_387
1404,1.0729688,4.282295,8.851993,20231017_132315_390
1405,1.0346485,4.277505,8.875943,20231017_132315_392
1406,1.092129,4.282295,8.837623,20231017_132315_395
1407,1.0825489,4.277505,8.861572,20231017_132315_397
1408,1.101709,4.258345,8.832832,20231017_132315_400
1409,1.0777588,4.3206153,8.832832,20231017_132315_402
1410,1.0873389,4.3014555,8.808882,20231017_132315_404
1411,1.0729688,4.311035,8.722662,20231017_132315_407
1412,1.0825489,4.239185,8.780142,20231017_132315_410
1413,1.0729688,4.287085,8.770562,20231017_132315_412
1414,1.0250684,4.3349857,8.784932,20231017_132315_415
1415,1.0394385,4.176914,8.885523,20231017_132315_417
1416,1.0585986,4.263135,8.804092,20231017_132315_420
1417,1.0442286,4.2439747,8.808882,20231017_132315_422
1418,1.0394385,4.267925,8.765772,20231017_132315_425
1419,1.0681788,4.3062453,8.909473,20231017_132315_427
1420,1.0011182,4.258345,8.813672,20231017_132315_430
1421,1.0059083,4.3541455,8.804092,20231017_132315_433
1422,1.0346485,4.263135,8.708291,20231017_132315_436
1423,1.0442286,4.282295,8.770562,20231017_132315_438
1424,1.0777588,4.253555,8.737032,20231017_132315_440
1425,0.977168,4.263135,8.751402,20231017_132315_443
1426,1.0298585,4.282295,8.765772,20231017_132315_445
1427,0.9867481,4.287085,8.818462,20231017_132315_448
1428,1.0442286,4.3206153,8.784932,20231017_132315_451
1429,1.0154883,4.296665,8.847202,20231017_132315_453
1430,0.98195803,4.3062453,8.866363,20231017_132315_456
1431,1.0490186,4.267925,8.828042,20231017_132315_458
1432,1.0011182,4.373306,8.804092,20231017_132315_461
1433,1.0538087,4.3062453,8.804092,20231017_132315_464
1434,1.0538087,4.3445654,8.818462,20231017_132315_466
1435,1.0250684,4.263135,8.770562,20231017_132315_469
1436,1.0633887,4.277505,8.760982,20231017_132315_471
1437,1.0681788,4.272715,8.775352,20231017_132315_473
1438,1.0106983,4.277505,8.737032,20231017_132315_476
1439,1.1064991,4.3301954,8.765772,20231017_132315_478
1440,1.0490186,4.311035,8.756192,20231017_132315_481
1441,1.1160791,4.3014555,8.665181,20231017_132315_483
1442,1.0585986,4.296665,8.732242,20231017_132315_486
1443,1.096919,4.282295,8.722662,20231017_132315_488
1444,1.0202783,4.2918754,8.698711,20231017_132315_491
1445,1.0394385,4.2343946,8.765772,20231017_132315_494
1446,1.0681788,4.3062453,8.799302,20231017_132315_496
1447,0.9915381,4.2343946,8.780142,20231017_132315_499
1448,0.9963282,4.3206153,8.746612,20231017_132315_501
1449,1.0394385,4.2439747,8.794512,20231017_132315_504
1450,1.0777588,4.2343946,8.780142,20231017_132315_506
1451,1.0777588,4.3158255,8.760982,20231017_132315_509
1452,1.0202783,4.263135,8.770562,20231017_132315_511
1453,1.0442286,4.258345,8.775352,20231017_132315_514
1454,1.0250684,4.3445654,8.784932,20231017_132315_516
1455,1.0250684,4.3062453,8.775352,20231017_132315_519
1456,1.0633887,4.263135,8.784932,20231017_132315_521
1457,1.1160791,4.2918754,8.741821,20231017_132315_524
1458,1.0633887,4.358936,8.837623,20231017_132315_527
1459,1.0106983,4.296665,8.813672,20231017_132315_529
1460,1.1160791,4.277505,8.880733,20231017_132315_532
1461,1.0729688,4.358936,8.847202,20231017_132315_535
1462,1.1496094,4.3301954,8.861572,20231017_132315_538
1463,1.1208692,4.296665,8.818462,20231017_132315_539
1464,1.1064991,4.3445654,8.842413,20231017_132315_542
1465,1.0346485,4.3349857,8.851993,20231017_132315_545
1466,1.0873389,4.3206153,8.866363,20231017_132315_548
1467,1.0729688,4.3541455,8.756192,20231017_132315_550
1468,1.0442286,4.287085,8.813672,20231017_132315_553
1469,1.0585986,4.272715,8.832832,20231017_132315_555
1470,1.1112891,4.416416,8.722662,20231017_132315_558
1471,1.0250684,4.287085,8.837623,20231017_132315_560
1472,1.101709,4.267925,8.8951025,20231017_132315_563
1473,1.0873389,4.3206153,8.847202,20231017_132315_565
1474,1.0873389,4.253555,8.847202,20231017_132315_568
1475,1.096919,4.358936,8.847202,20231017_132315_570
1476,1.1400293,4.3206153,8.933423,20231017_132315_573
1477,1.0777588,4.2918754,8.837623,20231017_132315_575
1478,1.0873389,4.253555,8.851993,20231017_132315_578
1479,1.0538087,4.3158255,8.8951025,20231017_132315_580
1480,1.0825489,4.3397756,8.8951025,20231017_132315_582
1481,1.0777588,4.2343946,8.808882,20231017_132315_585
1482,1.0873389,4.287085,8.842413,20231017_132315_588
1483,1.0585986,4.272715,8.837623,20231017_132315_590
1484,1.0059083,4.253555,8.828042,20231017_132315_593
1485,1.0250684,4.3158255,8.775352,20231017_132315_595
1486,1.0202783,4.3062453,8.765772,20231017_132315_597
1487,1.0585986,4.368516,8.717872,20231017_132315_600
1488,1.0346485,4.3493557,8.693921,20231017_132315_602
1489,1.0681788,4.392466,8.717872,20231017_132315_605
1490,1.0585986,4.4212065,8.722662,20231017_132315_608
1491,1.0298585,4.382886,8.665181,20231017_132315_610
1492,1.0442286,4.3397756,8.59333,20231017_132315_613
1493,1.092129,4.3254056,8.722662,20231017_132315_616
1494,1.0873389,4.387676,8.722662,20231017_132315_618
1495,1.0346485,4.3062453,8.722662,20231017_132315_620
1496,1.0394385,4.3445654,8.737032,20231017_132315_623
1497,1.0825489,4.3206153,8.713081,20231017_132315_625
1498,1.0777588,4.3445654,8.741821,20231017_132315_628
1499,1.0777588,4.296665,8.842413,20231017_132315_631
1500,1.092129,4.3254056,8.746612,20231017_132315_633
1501,1.092129,4.373306,8.832832,20231017_132315_635
1502,1.0538087,4.3349857,8.665181,20231017_132315_638
1503,1.0873389,4.311035,8.818462,20231017_132315_641
1504,1.0825489,4.287085,8.708291,20231017_132315_643
1505,1.1208692,4.3014555,8.760982,20231017_132315_645
1506,1.0538087,4.311035,8.784932,20231017_132315_648
1507,1.0873389,4.3397756,8.760982,20231017_132315_651
1508,1.0825489,4.267925,8.828042,20231017_132315_653
1509,1.0681788,4.287085,8.823253,20231017_132315_656
1510,1.0298585,4.282295,8.808882,20231017_132315_658
1511,1.0442286,4.2918754,8.780142,20231017_132315_661
1512,0.9915381,4.267925,8.784932,20231017_132315_663
1513,1.0442286,4.3637257,8.832832,20231017_132315_666
1514,1.0490186,4.296665,8.765772,20231017_132315_669
1515,1.0490186,4.2439747,8.823253,20231017_132315_671
1516,1.0154883,4.3445654,8.923843,20231017_132315_674
1517,1.0825489,4.2343946,8.823253,20231017_132315_676
1518,0.9867481,4.3397756,8.899893,20231017_132315_679
1519,1.0106983,4.358936,8.856783,20231017_132315_681
1520,1.0633887,4.311035,8.856783,20231017_132315_684
1521,1.0873389,4.296665,8.8951025,20231017_132315_687
1522,1.0442286,4.3206153,8.837623,20231017_132315_689
1523,1.0346485,4.2918754,8.823253,20231017_132315_691
1524,1.1160791,4.277505,8.799302,20231017_132315_694
1525,1.0825489,4.3349857,8.828042,20231017_132315_697
1526,1.0346485,4.3206153,8.837623,20231017_132315_699
1527,1.0585986,4.311035,8.8951025,20231017_132315_701
1528,1.0346485,4.3062453,8.823253,20231017_132315_704
1529,0.98195803,4.382886,8.818462,20231017_132315_707
1530,1.0346485,4.3301954,8.823253,20231017_132315_709
1531,1.0585986,4.402046,8.804092,20231017_132315_712
1532,0.977168,4.397256,8.880733,20231017_132315_714
1533,1.0538087,4.4451566,8.875943,20231017_132315_717
1534,1.0202783,4.5601172,8.832832,20231017_132315_718
1535,1.0442286,4.4691067,8.818462,20231017_132315_722
1536,1.0490186,4.550537,8.708291,20231017_132315_724
1537,1.0394385,4.5074267,8.780142,20231017_132315_726
1538,1.0250684,4.430786,8.760982,20231017_132315_729
1539,1.0346485,4.3206153,8.756192,20231017_132315_732
1540,1.0394385,4.239185,8.741821,20231017_132315_734
1541,1.0346485,4.1625443,8.780142,20231017_132315_737
1542,1.0394385,4.191284,8.823253,20231017_132315_739
1543,1.0490186,4.1002736,8.847202,20231017_132315_742
1544,1.1160791,4.095484,8.866363,20231017_132315_744
1545,1.0585986,4.0811133,8.856783,20231017_132315_747
1546,1.0633887,4.0667434,8.789722,20231017_132315_750
1547,1.0633887,4.2104445,8.904683,20231017_132315_752
1548,1.0538087,4.152964,8.8951025,20231017_132315_755
1549,1.0490186,4.311035,8.871153,20231017_132315_758
1550,1.0250684,4.267925,8.780142,20231017_132315_760
1551,1.092129,4.2152348,8.784932,20231017_132315_763
1552,0.98195803,4.358936,8.727451,20231017_132315_765
1553,1.0011182,4.267925,8.842413,20231017_132315_768
1554,0.9963282,4.3158255,8.765772,20231017_132315_770
1555,1.0777588,4.287085,8.760982,20231017_132315_773
1556,0.9915381,4.4212065,8.760982,20231017_132315_775
1557,1.0873389,4.3206153,8.847202,20231017_132315_777
1558,1.0633887,4.4499464,8.847202,20231017_132315_780
1559,1.0298585,4.5409575,8.799302,20231017_132315_783
1560,1.0681788,4.6128078,8.813672,20231017_132315_785
1561,0.9867481,4.766089,8.746612,20231017_132315_788
1562,0.9867481,4.703819,8.746612,20231017_132315_790
1563,0.9580079,4.608018,8.813672,20231017_132315_793
1564,0.9915381,4.7086086,8.741821,20231017_132315_795
1565,1.0442286,4.622388,8.775352,20231017_132315_798
1566,1.0681788,4.497847,8.760982,20231017_132315_800
1567,1.1256592,4.406836,8.775352,20231017_132315_803
1568,1.1448194,4.287085,8.741821,20231017_132315_806
1569,1.092129,4.2104445,8.689131,20231017_132315_808
1570,1.1496094,4.1864944,8.713081,20231017_132315_810
1571,1.096919,4.133804,8.646021,20231017_132315_814
1572,1.1927198,4.152964,8.617281,20231017_132315_817
1573,1.1591895,4.133804,8.6077,20231017_132315_818
1574,1.1352394,4.157754,8.6077,20231017_132315_822
1575,1.1639795,4.1721244,8.56459,20231017_132315_824
1576,1.1304493,4.277505,8.679551,20231017_132315_826
1577,1.1304493,4.258345,8.612491,20231017_132315_829
1578,1.0777588,4.2439747,8.650811,20231017_132315_831
1579,1.1064991,4.253555,8.631651,20231017_132315_835
1580,1.1208692,4.282295,8.58854,20231017_132315_836
1581,1.1400293,4.3014555,8.6077,20231017_132315_839
1582,1.1112891,4.253555,8.693921,20231017_132315_841
1583,1.1831397,4.282295,8.650811,20231017_132315_844
1584,1.101709,4.2918754,8.756192,20231017_132315_846
1585,1.1304493,4.2104445,8.722662,20231017_132315_849
1586,1.096919,4.248765,8.780142,20231017_132315_851
1587,1.0825489,4.3062453,8.689131,20231017_132315_854
1588,1.0729688,4.3493557,8.799302,20231017_132315_861
1589,1.0346485,4.253555,8.780142,20231017_132315_862
1590,1.0106983,4.311035,8.789722,20231017_132315_863
1591,1.0490186,4.3014555,8.813672,20231017_132315_864
1592,1.0250684,4.272715,8.760982,20231017_132315_868
1593,0.9436377,4.368516,8.708291,20231017_132315_869
1594,1.0202783,4.4259963,8.823253,20231017_132315_872
1595,1.0394385,4.4499464,8.842413,20231017_132315_874
1596,0.9915381,4.4259963,8.813672,20231017_132315_876
1597,0.92926764,4.4499464,8.856783,20231017_132315_879
1598,0.92926764,4.5457473,8.904683,20231017_132315_881
1599,0.9244776,4.512217,8.823253,20231017_132315_883
1600,0.9484278,4.4403663,8.875943,20231017_132315_886
1601,1.0202783,4.5074267,8.856783,20231017_132315_889
1602,0.9388477,4.4451566,8.962164,20231017_132315_891
1603,0.93405765,4.4834766,8.875943,20231017_132315_894
1604,0.9963282,4.4643164,8.875943,20231017_132315_896
1605,0.977168,4.4355764,8.890313,20231017_132315_898
1606,1.0346485,4.4547367,8.804092,20231017_132315_901
1607,1.0011182,4.368516,8.866363,20231017_132315_903
1608,1.0394385,4.397256,8.789722,20231017_132315_907
1609,1.0011182,4.282295,8.808882,20231017_132315_909
1610,1.0202783,4.382886,8.808882,20231017_132315_912
1611,0.9963282,4.368516,8.789722,20231017_132315_914
1612,1.0538087,4.4355764,8.741821,20231017_132315_916
1613,1.0154883,4.402046,8.775352,20231017_132315_919
1614,1.092129,4.4259963,8.737032,20231017_132315_921
1615,1.101709,4.3206153,8.746612,20231017_132315_924
1616,1.1112891,4.3254056,8.765772,20231017_132315_926
1617,1.0777588,4.3206153,8.727451,20231017_132315_929
1618,1.1112891,4.3493557,8.770562,20231017_132315_931
1619,1.096919,4.387676,8.837623,20231017_132315_934
1620,1.096919,4.368516,8.751402,20231017_132315_936
1621,1.0873389,4.311035,8.746612,20231017_132315_939
1622,1.1352394,4.4355764,8.765772,20231017_132315_941
1623,1.0777588,4.3062453,8.756192,20231017_132315_944
1624,1.1256592,4.311035,8.818462,20231017_132315_947
1625,1.1304493,4.402046,8.794512,20231017_132315_949
1626,1.1112891,4.4116263,8.746612,20231017_132315_952
1627,1.1879297,4.4834766,8.756192,20231017_132315_954
1628,1.1448194,4.406836,8.756192,20231017_132315_957
1629,1.1591895,4.502637,8.794512,20231017_132315_959
1630,1.1735597,4.4355764,8.775352,20231017_132315_962
1631,1.1208692,4.3445654,8.717872,20231017_132315_964
1632,1.1352394,4.368516,8.703502,20231017_132315_967
1633,1.1256592,4.488267,8.679551,20231017_132315_969
1634,1.0873389,4.416416,8.722662,20231017_132315_972
1635,1.1160791,4.4212065,8.669971,20231017_132315_975
1636,1.0729688,4.4116263,8.703502,20231017_132315_978
1637,1.1112891,4.406836,8.737032,20231017_132315_980
1638,1.1496094,4.387676,8.689131,20231017_132315_982
1639,1.1735597,4.402046,8.775352,20231017_132315_985
1640,1.1112891,4.387676,8.727451,20231017_132315_987
1641,1.1783496,4.4738965,8.789722,20231017_132315_990
1642,1.1735597,4.4643164,8.808882,20231017_132315_993
1643,1.0873389,4.4116263,8.813672,20231017_132315_995
1644,1.1160791,4.368516,8.794512,20231017_132315_997
1645,1.0681788,4.4499464,8.799302,20231017_132316_000
1646,1.1256592,4.397256,8.760982,20231017_132316_002
1647,1.0681788,4.3254056,8.703502,20231017_132316_005
1648,1.101709,4.3541455,8.669971,20231017_132316_008
1649,1.1496094,4.3493557,8.689131,20231017_132316_010
1650,1.1400293,4.3541455,8.741821,20231017_132316_013
1651,1.1160791,4.3254056,8.713081,20231017_132316_015
1652,1.1160791,4.378096,8.698711,20231017_132316_018
1653,1.096919,4.267925,8.765772,20231017_132316_020
1654,1.092129,4.430786,8.698711,20231017_132316_023
1655,1.096919,4.3397756,8.732242,20231017_132316_026
1656,1.0633887,4.406836,8.722662,20231017_132316_029
1657,1.0729688,4.387676,8.741821,20231017_132316_031
1658,1.0681788,4.382886,8.775352,20231017_132316_034
1659,1.0298585,4.4451566,8.765772,20231017_132316_036
1660,1.0202783,4.5313773,8.737032,20231017_132316_039
1661,1.0298585,4.4116263,8.703502,20231017_132316_041
1662,1.0298585,4.406836,8.784932,20231017_132316_044
1663,1.0538087,4.4691067,8.756192,20231017_132316_047
1664,1.0729688,4.493057,8.775352,20231017_132316_049
1665,1.0873389,4.4355764,8.760982,20231017_132316_052
1666,1.0298585,4.382886,8.804092,20231017_132316_054
1667,1.1112891,4.4643164,8.650811,20231017_132316_057
1668,1.0585986,4.3637257,8.756192,20231017_132316_059
1669,1.0346485,4.406836,8.780142,20231017_132316_062
1670,1.0633887,4.3349857,8.741821,20231017_132316_065
1671,1.0777588,4.382886,8.760982,20231017_132316_067
1672,1.1256592,4.3254056,8.799302,20231017_132316_070
1673,1.0490186,4.368516,8.794512,20231017_132316_072
1674,1.1112891,4.258345,8.789722,20231017_132316_074
1675,1.1208692,4.3254056,8.794512,20231017_132316_077
1676,1.096919,4.378096,8.808882,20231017_132316_079
1677,1.101709,4.4451566,8.751402,20231017_132316_082
1678,1.0633887,4.282295,8.880733,20231017_132316_084
1679,1.0825489,4.311035,8.832832,20231017_132316_087
1680,1.092129,4.382886,8.775352,20231017_132316_089
1681,1.0585986,4.3254056,8.866363,20231017_132316_092
1682,1.1160791,4.282295,8.813672,20231017_132316_094
1683,1.0873389,4.3445654,8.851993,20231017_132316_097
1684,1.0729688,4.3014555,8.880733,20231017_132316_100
1685,1.0873389,4.311035,8.866363,20231017_132316_102
1686,1.0777588,4.296665,8.885523,20231017_132316_105
1687,1.1448194,4.3397756,8.866363,20231017_132316_107
1688,1.0346485,4.3637257,8.842413,20231017_132316_109
1689,1.0346485,4.311035,8.885523,20231017_132316_112
1690,1.0681788,4.358936,8.909473,20231017_132316_114
1691,1.0059083,4.397256,8.851993,20231017_132316_117
1692,1.0585986,4.368516,8.804092,20231017_132316_119
1693,1.0681788,4.406836,8.847202,20231017_132316_122
1694,1.0011182,4.3158255,8.789722,20231017_132316_124
1695,1.0442286,4.3493557,8.780142,20231017_132316_127
1696,1.0442286,4.3541455,8.780142,20231017_132316_130
1697,1.0633887,4.368516,8.708291,20231017_132316_133
1698,1.0250684,4.382886,8.737032,20231017_132316_135
1699,1.0825489,4.368516,8.655601,20231017_132316_138
1700,1.0729688,4.3493557,8.660391,20231017_132316_141
1701,1.1064991,4.378096,8.775352,20231017_132316_143
1702,1.0633887,4.3301954,8.760982,20231017_132316_146
1703,1.0681788,4.416416,8.665181,20231017_132316_148
1704,1.1304493,4.402046,8.713081,20231017_132316_151
1705,1.0777588,4.4259963,8.713081,20231017_132316_153
1706,1.1112891,4.4116263,8.732242,20231017_132316_156
1707,1.1160791,4.4595265,8.804092,20231017_132316_158
1708,1.101709,4.4834766,8.770562,20231017_132316_162
1709,1.096919,4.397256,8.784932,20231017_132316_163
1710,1.0490186,4.497847,8.789722,20231017_132316_166
1711,1.1352394,4.5074267,8.751402,20231017_132316_168
1712,1.0729688,4.392466,8.799302,20231017_132316_171
1713,1.1112891,4.430786,8.789722,20231017_132316_174
1714,1.0729688,4.493057,8.775352,20231017_132316_176
1715,1.092129,4.4403663,8.679551,20231017_132316_178
1716,1.1304493,4.358936,8.794512,20231017_132316_181
1717,1.1112891,4.3493557,8.703502,20231017_132316_183
1718,1.1256592,4.382886,8.717872,20231017_132316_187
1719,1.1304493,4.373306,8.794512,20231017_132316_188
1720,1.1687696,4.311035,8.708291,20231017_132316_191
1721,1.2454102,4.382886,8.765772,20231017_132316_193
1722,1.1975098,4.4212065,8.765772,20231017_132316_195
1723,1.1975098,4.397256,8.765772,20231017_132316_198
1724,1.1496094,4.387676,8.837623,20231017_132316_201
1725,1.1687696,4.387676,8.804092,20231017_132316_203
1726,1.1496094,4.382886,8.818462,20231017_132316_205
1727,1.1304493,4.368516,8.804092,20231017_132316_208
1728,1.1448194,4.4259963,8.832832,20231017_132316_211
1729,1.1591895,4.387676,8.770562,20231017_132316_214
1730,1.1879297,4.373306,8.737032,20231017_132316_216
1731,1.1160791,4.3397756,8.808882,20231017_132316_219
1732,1.1496094,4.3541455,8.674761,20231017_132316_221
1733,1.0825489,4.3206153,8.794512,20231017_132316_223
1734,1.0633887,4.358936,8.698711,20231017_132316_226
1735,1.0873389,4.387676,8.746612,20231017_132316_229
1736,1.1064991,4.402046,8.737032,20231017_132316_231
1737,1.096919,4.3254056,8.722662,20231017_132316_234
1738,1.0777588,4.3301954,8.770562,20231017_132316_236
1739,1.0490186,4.3301954,8.765772,20231017_132316_239
1740,1.0250684,4.2918754,8.746612,20231017_132316_241
1741,1.0106983,4.3206153,8.756192,20231017_132316_243
1742,1.0490186,4.3014555,8.746612,20231017_132316_247
1743,1.0585986,4.373306,8.804092,20231017_132316_251
1744,1.0825489,4.3254056,8.837623,20231017_132316_252
1745,1.101709,4.277505,8.760982,20231017_132316_254
1746,1.1064991,4.3637257,8.732242,20231017_132316_256
1747,1.092129,4.3541455,8.804092,20231017_132316_259
1748,1.0681788,4.3637257,8.760982,20231017_132316_262
1749,1.0777588,4.416416,8.789722,20231017_132316_266
1750,1.0538087,4.368516,8.789722,20231017_132316_269
1751,1.0106983,4.373306,8.804092,20231017_132316_271
1752,1.0633887,4.358936,8.842413,20231017_132316_273
1753,1.0298585,4.4212065,8.823253,20231017_132316_274
1754,1.0538087,4.406836,8.828042,20231017_132316_277
1755,1.0825489,4.4116263,8.794512,20231017_132316_279
1756,1.0729688,4.512217,8.794512,20231017_132316_282
1757,1.0538087,4.4212065,8.775352,20231017_132316_285
1758,1.0777588,4.3637257,8.770562,20231017_132316_287
1759,1.0681788,4.497847,8.756192,20231017_132316_289
1760,1.0538087,4.378096,8.823253,20231017_132316_292
1761,1.0825489,4.3206153,8.689131,20231017_132316_294
1762,1.0777588,4.3493557,8.698711,20231017_132316_297
1763,1.0490186,4.282295,8.751402,20231017_132316_299
1764,1.0729688,4.3062453,8.737032,20231017_132316_301
1765,1.1064991,4.373306,8.751402,20231017_132316_304
1766,1.0346485,4.4451566,8.737032,20231017_132316_306
1767,1.1352394,4.3637257,8.794512,20231017_132316_309
1768,1.092129,4.416416,8.708291,20231017_132316_311
1769,1.101709,4.387676,8.751402,20231017_132316_314
1770,1.092129,4.397256,8.751402,20231017_132316_316
1771,1.1304493,4.4212065,8.669971,20231017_132316_319
1772,1.1304493,4.406836,8.665181,20231017_132316_321
1773,1.1208692,4.488267,8.679551,20231017_132316_324
1774,1.0394385,4.3397756,8.693921,20231017_132316_327
1775,1.1064991,4.406836,8.751402,20231017_132316_329
1776,1.101709,4.4212065,8.703502,20231017_132316_332
1777,1.1304493,4.402046,8.646021,20231017_132316_334
1778,1.101709,4.4355764,8.669971,20231017_132316_337
1779,1.0346485,4.4403663,8.684341,20231017_132316_339
1780,1.1112891,4.4259963,8.703502,20231017_132316_342
1781,1.0585986,4.4403663,8.732242,20231017_132316_345
1782,1.1112891,4.392466,8.679551,20231017_132316_347
1783,1.1400293,4.382886,8.794512,20231017_132316_350
1784,1.0825489,4.493057,8.708291,20231017_132316_352
1785,1.1496094,4.3493557,8.799302,20231017_132316_359
1786,1.1591895,4.406836,8.770562,20231017_132316_360
1787,1.1256592,4.368516,8.746612,20231017_132316_360
1788,1.1400293,4.3541455,8.641231,20231017_132316_363
1789,1.1400293,4.402046,8.746612,20231017_132316_365
1790,1.1208692,4.3397756,8.737032,20231017_132316_369
1791,1.1208692,4.3493557,8.660391,20231017_132316_370
1792,1.1256592,4.430786,8.746612,20231017_132316_373
1793,1.1400293,4.382886,8.737032,20231017_132316_376
1794,1.092129,4.3301954,8.722662,20231017_132316_378
1795,1.1496094,4.378096,8.689131,20231017_132316_381
1796,1.1400293,4.382886,8.722662,20231017_132316_384
1797,1.1304493,4.4499464,8.780142,20231017_132316_386
1798,1.092129,4.392466,8.770562,20231017_132316_388
1799,1.0873389,4.368516,8.823253,20231017_132316_390
1800,1.1543995,4.387676,8.808882,20231017_132316_393
1801,1.1496094,4.382886,8.804092,20231017_132316_395
1802,1.1208692,4.4355764,8.880733,20231017_132316_398
1803,1.1064991,4.2918754,8.794512,20231017_132316_400
1804,1.1448194,4.3301954,8.847202,20231017_132316_403
1805,1.1639795,4.402046,8.828042,20231017_132316_405
1806,0.9963282,4.517007,8.813672,20231017_132316_408
1807,1.0346485,4.368516,8.818462,20231017_132316_411
1808,1.0154883,4.4691067,8.746612,20231017_132316_413
1809,1.0202783,4.4212065,8.765772,20231017_132316_415
1810,1.0202783,4.406836,8.799302,20231017_132316_418
1811,1.1208692,4.368516,8.799302,20231017_132316_420
1812,1.0825489,4.3206153,8.794512,20231017_132316_423
1813,1.1112891,4.382886,8.804092,20231017_132316_425
1814,1.0777588,4.358936,8.885523,20231017_132316_428
1815,1.101709,4.3301954,8.741821,20231017_132316_431
1816,1.0825489,4.387676,8.717872,20231017_132316_433
1817,1.0346485,4.368516,8.741821,20231017_132316_436
1818,1.0442286,4.3445654,8.756192,20231017_132316_438
1819,1.0825489,4.3158255,8.818462,20231017_132316_441
1820,0.9867481,4.373306,8.804092,20231017_132316_444
1821,1.0346485,4.358936,8.727451,20231017_132316_446
1822,1.0873389,4.406836,8.851993,20231017_132316_449
1823,1.0777588,4.3541455,8.871153,20231017_132316_451
1824,1.1591895,4.368516,8.832832,20231017_132316_454
1825,1.1064991,4.287085,8.880733,20231017_132316_456
1826,1.0777588,4.3062453,8.875943,20231017_132316_459
1827,1.1160791,4.3062453,8.866363,20231017_132316_461
1828,1.1112891,4.311035,8.899893,20231017_132316_464
1829,1.0825489,4.3349857,8.770562,20231017_132316_467
1830,1.0777588,4.3062453,8.789722,20231017_132316_470
1831,1.0633887,4.3349857,8.737032,20231017_132316_472
1832,1.0442286,4.277505,8.751402,20231017_132316_475
1833,1.0825489,4.258345,8.722662,20231017_132316_477
1834,1.0873389,4.277505,8.737032,20231017_132316_480
1835,1.0490186,4.3445654,8.746612,20231017_132316_482
1836,1.0825489,4.3206153,8.770562,20231017_132316_484
1837,1.1112891,4.3397756,8.717872,20231017_132316_487
1838,1.1591895,4.378096,8.684341,20231017_132316_490
1839,1.096919,4.263135,8.832832,20231017_132316_492
1840,1.1496094,4.3014555,8.765772,20231017_132316_494
1841,1.1160791,4.3541455,8.693921,20231017_132316_497
1842,1.0825489,4.358936,8.641231,20231017_132316_500
1843,1.1543995,4.3301954,8.756192,20231017_132316_502
1844,1.0873389,4.3254056,8.698711,20231017_132316_505
1845,1.1543995,4.3158255,8.717872,20231017_132316_507
1846,1.0729688,4.3445654,8.737032,20231017_132316_510
1847,1.0777588,4.3445654,8.727451,20231017_132316_512
1848,1.0825489,4.4355764,8.737032,20231017_132316_515
1849,1.0825489,4.502637,8.684341,20231017_132316_517
1850,1.0777588,4.5074267,8.737032,20231017_132316_520
1851,1.0202783,4.5074267,8.684341,20231017_132316_522
1852,1.0873389,4.521797,8.674761,20231017_132316_525
1853,1.0442286,4.5792775,8.684341,20231017_132316_527
1854,1.0729688,4.478687,8.741821,20231017_132316_530
1855,1.096919,4.368516,8.698711,20231017_132316_532
1856,1.0777588,4.3014555,8.655601,20231017_132316_535
1857,1.0585986,4.239185,8.717872,20231017_132316_537
1858,1.0729688,4.2104445,8.780142,20231017_132316_540
1859,1.1064991,4.2200246,8.765772,20231017_132316_542
1860,1.0681788,4.1146436,8.684341,20231017_132316_545
1861,1.092129,4.1721244,8.756192,20231017_132316_548
1862,1.096919,4.119434,8.842413,20231017_132316_550
1863,1.092129,4.138594,8.665181,20231017_132316_553
1864,1.0825489,4.2008643,8.828042,20231017_132316_556
1865,1.1208692,4.2918754,8.789722,20231017_132316_558
1866,1.092129,4.272715,8.760982,20231017_132316_561
1867,1.1352394,4.2008643,8.775352,20231017_132316_563
1868,1.0585986,4.267925,8.756192,20231017_132316_566
1869,1.1064991,4.3014555,8.837623,20231017_132316_568
1870,1.0873389,4.3493557,8.799302,20231017_132316_571
1871,1.0729688,4.373306,8.832832,20231017_132316_573
1872,1.0873389,4.402046,8.722662,20231017_132316_575
1873,1.1160791,4.402046,8.856783,20231017_132316_578
1874,1.1064991,4.488267,8.813672,20231017_132316_581
1875,1.1112891,4.521797,8.813672,20231017_132316_583
1876,1.0394385,4.598438,8.828042,20231017_132316_586
1877,1.0442286,4.646338,8.832832,20231017_132316_588
1878,1.0490186,4.6750784,8.861572,20231017_132316_591
1879,1.092129,4.622388,8.909473,20231017_132316_594
1880,1.101709,4.5840673,8.866363,20231017_132316_596
1881,1.1543995,4.5313773,8.885523,20231017_132316_598
1882,1.1352394,4.512217,8.866363,20231017_132316_601
1883,1.1352394,4.358936,8.875943,20231017_132316_603
1884,1.1256592,4.277505,8.842413,20231017_132316_606
1885,1.2310401,4.2104445,8.813672,20231017_132316_609
1886,1.1160791,4.1721244,8.799302,20231017_132316_611
1887,1.1735597,4.1050634,8.756192,20231017_132316_614
1888,1.1400293,4.0811133,8.693921,20231017_132316_616
1889,1.1639795,4.1242237,8.775352,20231017_132316_619
1890,1.101709,4.148174,8.717872,20231017_132316_621
1891,1.1304493,4.167334,8.746612,20231017_132316_623
1892,1.0777588,4.1721244,8.832832,20231017_132316_626
1893,1.0585986,4.2200246,8.746612,20231017_132316_629
1894,1.0825489,4.1864944,8.799302,20231017_132316_631
1895,1.1400293,4.3158255,8.760982,20231017_132316_634
1896,1.1160791,4.3062453,8.856783,20231017_132316_637
1897,1.0777588,4.258345,8.784932,20231017_132316_639
1898,1.1160791,4.2439747,8.775352,20231017_132316_643
1899,1.096919,4.2439747,8.770562,20231017_132316_644
1900,1.092129,4.3445654,8.760982,20231017_132316_648
1901,1.0394385,4.277505,8.789722,20231017_132316_649
1902,1.0777588,4.253555,8.775352,20231017_132316_652
1903,1.1064991,4.2343946,8.784932,20231017_132316_654
1904,1.0442286,4.258345,8.804092,20231017_132316_657
1905,1.0585986,4.263135,8.818462,20231017_132316_661
1906,1.0059083,4.311035,8.818462,20231017_132316_662
1907,1.0633887,4.416416,8.780142,20231017_132316_664
1908,1.0298585,4.416416,8.746612,20231017_132316_667
1909,1.0490186,4.4212065,8.784932,20231017_132316_669
1910,1.0250684,4.4451566,8.717872,20231017_132316_672
1911,1.0059083,4.4451566,8.741821,20231017_132316_675
1912,0.9963282,4.4212065,8.703502,20231017_132316_677
1913,1.0059083,4.521797,8.784932,20231017_132316_680
1914,1.0346485,4.493057,8.660391,20231017_132316_681
1915,1.0729688,4.4691067,8.799302,20231017_132316_685
1916,1.0154883,4.4403663,8.717872,20231017_132316_687
1917,1.0202783,4.4547367,8.770562,20231017_132316_690
1918,1.0298585,4.488267,8.751402,20231017_132316_692
1919,1.0298585,4.382886,8.808882,20231017_132316_695
1920,1.0106983,4.3637257,8.871153,20231017_132316_697
1921,1.0154883,4.392466,8.751402,20231017_132316_700
1922,1.0585986,4.406836,8.842413,20231017_132316_702
1923,1.0585986,4.3445654,8.847202,20231017_132316_704
1924,1.0538087,4.416416,8.832832,20231017_132316_707
1925,1.0490186,4.378096,8.794512,20231017_132316_710
1926,1.0825489,4.378096,8.856783,20231017_132316_712
1927,1.0538087,4.3349857,8.765772,20231017_132316_715
1928,1.1352394,4.3349857,8.823253,20231017_132316_717
1929,1.1064991,4.3349857,8.866363,20231017_132316_719
1930,1.092129,4.3014555,8.804092,20231017_132316_722
1931,1.0873389,4.267925,8.823253,20231017_132316_725
1932,1.1352394,4.3206153,8.770562,20231017_132316_727
1933,1.0633887,4.3445654,8.851993,20231017_132316_730
1934,1.1400293,4.3445654,8.832832,20231017_132316_733
1935,1.1160791,4.3206153,8.851993,20231017_132316_735
1936,1.1208692,4.3254056,8.794512,20231017_132316_738
1937,1.0585986,4.3397756,8.794512,20231017_132316_740
1938,1.0873389,4.3301954,8.8951025,20231017_132316_743
1939,1.1160791,4.3397756,8.866363,20231017_132316_746
1940,1.1831397,4.373306,8.856783,20231017_132316_748
1941,1.1304493,4.4259963,8.804092,20231017_132316_750
1942,1.1927198,4.3541455,8.866363,20231017_132316_753
1943,1.1352394,4.3541455,8.756192,20231017_132316_756
1944,1.1400293,4.378096,8.875943,20231017_132316_758
1945,1.1448194,4.382886,8.856783,20231017_132316_761
1946,1.092129,4.2918754,8.856783,20231017_132316_764
1947,1.1352394,4.358936,8.794512,20231017_132316_766
1948,1.1256592,4.402046,8.818462,20231017_132316_769
1949,1.1304493,4.282295,8.780142,20231017_132316_771
1950,1.1112891,4.373306,8.737032,20231017_132316_774
1951,1.1543995,4.3493557,8.751402,20231017_132316_777
1952,1.1831397,4.2918754,8.732242,20231017_132316_779
1953,1.1208692,4.3397756,8.727451,20231017_132316_781
1954,1.0681788,4.3493557,8.636441,20231017_132316_784
1955,1.1208692,4.397256,8.751402,20231017_132316_786
1956,1.1112891,4.3493557,8.679551,20231017_132316_789
1957,1.096919,4.382886,8.703502,20231017_132316_791
1958,1.1064991,4.3301954,8.732242,20231017_132316_794
1959,1.0585986,4.3349857,8.674761,20231017_132316_797
1960,1.0346485,4.3206153,8.636441,20231017_132316_799
1961,1.0011182,4.3493557,8.760982,20231017_132316_801
1962,1.0729688,4.3158255,8.669971,20231017_132316_803
1963,1.0154883,4.3014555,8.713081,20231017_132316_806
1964,1.0346485,4.2343946,8.722662,20231017_132316_808
1965,1.1256592,4.296665,8.765772,20231017_132316_811
1966,1.092129,4.3349857,8.713081,20231017_132316_814
1967,1.0202783,4.287085,8.669971,20231017_132316_816
1968,1.0825489,4.311035,8.737032,20231017_132316_818
1969,1.0442286,4.3158255,8.784932,20231017_132316_821
1970,1.1160791,4.358936,8.770562,20231017_132316_824
1971,1.0729688,4.3206153,8.808882,20231017_132316_826
1972,1.0729688,4.2918754,8.784932,20231017_132316_829
1973,1.092129,4.3397756,8.847202,20231017_132316_832
1974,1.092129,4.387676,8.804092,20231017_132316_834
1975,1.1160791,4.402046,8.828042,20231017_132316_836
1976,1.092129,4.387676,8.804092,20231017_132316_839
1977,1.1256592,4.4259963,8.775352,20231017_132316_842
1978,1.1256592,4.416416,8.832832,20231017_132316_845
1979,1.0538087,4.4403663,8.784932,20231017_132316_847
1980,1.0538087,4.397256,8.842413,20231017_132316_849
1981,1.0538087,4.378096,8.813672,20231017_132316_852
1982,1.0585986,4.3206153,8.799302,20231017_132316_855
1983,1.1256592,4.3062453,8.828042,20231017_132316_861
1984,1.096919,4.267925,8.832832,20231017_132316_862
1985,1.096919,4.258345,8.818462,20231017_132316_862
1986,1.092129,4.267925,8.875943,20231017_132316_865
1987,1.0681788,4.2008643,8.818462,20231017_132316_868
1988,1.1112891,4.2104445,8.885523,20231017_132316_871
1989,1.0825489,4.3158255,8.899893,20231017_132316_874
1990,1.1304493,4.263135,8.832832,20231017_132316_875
1991,1.0777588,4.263135,8.890313,20231017_132316_878
1992,1.0729688,4.272715,8.871153,20231017_132316_881
1993,1.0825489,4.3158255,8.957374,20231017_132316_884
1994,1.096919,4.3397756,8.871153,20231017_132316_885
1995,1.0585986,4.3301954,8.890313,20231017_132316_888
1996,1.0873389,4.3206153,8.851993,20231017_132316_890
1997,1.1304493,4.397256,8.866363,20231017_132316_892
1998,1.1208692,4.311035,8.851993,20231017_132316_895
1999,1.1160791,4.287085,8.847202,20231017_132316_897
2000,1.1304493,4.2104445,8.789722,20231017_132316_900
2001,1.092129,4.282295,8.789722,20231017_132316_902
2002,1.0825489,4.191284,8.727451,20231017_132316_905
2003,1.101709,4.3014555,8.847202,20231017_132316_907
2004,1.1112891,4.296665,8.823253,20231017_132316_910
2005,1.0729688,4.296665,8.746612,20231017_132316_912
2006,1.0250684,4.3541455,8.698711,20231017_132316_915
2007,1.0538087,4.378096,8.780142,20231017_132316_917
2008,1.0729688,4.3254056,8.784932,20231017_132316_920
2009,1.1304493,4.311035,8.722662,20231017_132316_922
2010,1.0394385,4.4212065,8.780142,20231017_132316_925
2011,1.0777588,4.3637257,8.775352,20231017_132316_927
2012,1.0873389,4.3397756,8.770562,20231017_132316_930
2013,1.0394385,4.402046,8.708291,20231017_132316_932
2014,1.1064991,4.397256,8.684341,20231017_132316_936
2015,1.0394385,4.4259963,8.775352,20231017_132316_938
2016,1.0202783,4.3445654,8.693921,20231017_132316_940
2017,1.0442286,4.397256,8.784932,20231017_132316_943
2018,1.0585986,4.392466,8.756192,20231017_132316_945
2019,1.0825489,4.378096,8.828042,20231017_132316_948
2020,1.1304493,4.402046,8.866363,20231017_132316_951
2021,1.0729688,4.358936,8.794512,20231017_132316_954
2022,1.0442286,4.392466,8.784932,20231017_132316_957
2023,1.092129,4.3158255,8.813672,20231017_132316_958
2024,1.092129,4.3493557,8.794512,20231017_132316_961
2025,1.1304493,4.3493557,8.713081,20231017_132316_964
2026,1.1064991,4.392466,8.765772,20231017_132316_966
2027,1.101709,4.373306,8.756192,20231017_132316_969
2028,1.1400293,4.3349857,8.760982,20231017_132316_971
2029,1.1448194,4.296665,8.660391,20231017_132316_974
2030,1.096919,4.402046,8.703502,20231017_132316_976
2031,1.1256592,4.287085,8.698711,20231017_132316_978
2032,1.1112891,4.382886,8.722662,20231017_132316_981
2033,1.1256592,4.430786,8.717872,20231017_132316_983
2034,1.1208692,4.3397756,8.693921,20231017_132316_986
2035,1.1304493,4.3541455,8.741821,20231017_132316_989
2036,1.0633887,4.3254056,8.741821,20231017_132316_991
2037,1.1064991,4.3158255,8.617281,20231017_132316_994
2038,1.1160791,4.4116263,8.660391,20231017_132316_996
2039,1.0873389,4.3493557,8.698711,20231017_132316_999
2040,1.1256592,4.3637257,8.746612,20231017_132317_001
2041,1.096919,4.3445654,8.818462,20231017_132317_004
2042,1.1112891,4.3397756,8.746612,20231017_132317_006
2043,1.1112891,4.277505,8.765772,20231017_132317_009
2044,1.092129,4.3637257,8.703502,20231017_132317_011
2045,1.1064991,4.368516,8.804092,20231017_132317_014
2046,1.1160791,4.3158255,8.775352,20231017_132317_016
2047,1.096919,4.258345,8.713081,20231017_132317_019
2048,1.0633887,4.3062453,8.746612,20231017_132317_021
2049,1.0585986,4.3445654,8.765772,20231017_132317_024
2050,1.0729688,4.3397756,8.756192,20231017_132317_026
2051,1.0633887,4.277505,8.741821,20231017_132317_029
2052,1.0873389,4.3014555,8.780142,20231017_132317_032
2053,1.092129,4.296665,8.828042,20231017_132317_034
2054,1.0633887,4.248765,8.770562,20231017_132317_037
2055,1.0106983,4.3014555,8.741821,20231017_132317_040
2056,1.0729688,4.3254056,8.717872,20231017_132317_042
2057,0.9532178,4.267925,8.789722,20231017_132317_045
2058,1.0394385,4.373306,8.842413,20231017_132317_047
2059,1.0633887,4.282295,8.737032,20231017_132317_050
2060,1.0154883,4.3397756,8.818462,20231017_132317_052
2061,0.9915381,4.3014555,8.871153,20231017_132317_057
2062,1.0538087,4.272715,8.861572,20231017_132317_059
2063,0.9963282,4.3493557,8.962164,20231017_132317_064
2064,1.0106983,4.277505,8.818462,20231017_132317_065
2065,1.0538087,4.282295,8.818462,20231017_132317_066
2066,1.0490186,4.3493557,8.8951025,20231017_132317_068
2067,1.0633887,4.378096,8.861572,20231017_132317_070
2068,1.1256592,4.3254056,8.933423,20231017_132317_072
2069,1.1304493,4.3493557,8.904683,20231017_132317_075
2070,1.101709,4.3349857,8.861572,20231017_132317_077
2071,1.092129,4.387676,8.808882,20231017_132317_080
2072,1.0394385,4.3301954,8.813672,20231017_132317_082
2073,1.0490186,4.397256,8.808882,20231017_132317_085
2074,1.0777588,4.358936,8.851993,20231017_132317_088
2075,1.0394385,4.3062453,8.746612,20231017_132317_090
2076,1.0825489,4.3158255,8.808882,20231017_132317_092
2077,1.0490186,4.3493557,8.784932,20231017_132317_094
2078,1.0538087,4.378096,8.808882,20231017_132317_097
2079,1.0298585,4.402046,8.760982,20231017_132317_099
2080,1.101709,4.287085,8.804092,20231017_132317_102
2081,1.0490186,4.287085,8.756192,20231017_132317_105
2082,1.1112891,4.3445654,8.799302,20231017_132317_107
2083,1.1064991,4.3349857,8.713081,20231017_132317_110
2084,1.1112891,4.3637257,8.760982,20231017_132317_112
2085,1.0825489,4.296665,8.837623,20231017_132317_115
2086,1.0873389,4.3493557,8.770562,20231017_132317_118
2087,1.1400293,4.253555,8.866363,20231017_132317_120
2088,1.0633887,4.373306,8.765772,20231017_132317_123
2089,1.0681788,4.358936,8.770562,20231017_132317_125
2090,1.1112891,4.3541455,8.727451,20231017_132317_128
2091,1.1112891,4.378096,8.741821,20231017_132317_131
2092,1.0490186,4.4355764,8.717872,20231017_132317_133
2093,1.0777588,4.296665,8.751402,20231017_132317_135
2094,1.0729688,4.3493557,8.737032,20231017_132317_138
2095,1.0633887,4.3637257,8.765772,20231017_132317_141
2096,1.0633887,4.378096,8.684341,20231017_132317_143
2097,1.0825489,4.3158255,8.770562,20231017_132317_147
2098,1.0298585,4.358936,8.770562,20231017_132317_149
2099,1.0298585,4.3206153,8.679551,20231017_132317_151
2100,1.092129,4.277505,8.703502,20231017_132317_154
2101,1.0825489,4.296665,8.737032,20231017_132317_156
2102,1.0442286,4.287085,8.770562,20231017_132317_158
2103,1.0011182,4.3206153,8.770562,20231017_132317_161
2104,1.0729688,4.272715,8.856783,20231017_132317_164
2105,1.0633887,4.282295,8.866363,20231017_132317_166
2106,1.0490186,4.3493557,8.780142,20231017_132317_169
2107,1.0250684,4.282295,8.804092,20231017_132317_171
2108,1.0250684,4.3397756,8.818462,20231017_132317_173
2109,1.0298585,4.296665,8.890313,20231017_132317_176
2110,1.0346485,4.296665,8.808882,20231017_132317_179
2111,1.0250684,4.296665,8.914263,20231017_132317_181
2112,1.0154883,4.272715,8.832832,20231017_132317_184
2113,1.096919,4.239185,8.851993,20231017_132317_187
2114,1.0442286,4.272715,8.832832,20231017_132317_189
2115,1.0633887,4.272715,8.861572,20231017_132317_191
2116,1.0154883,4.248765,8.765772,20231017_132317_194
2117,1.0442286,4.2439747,8.823253,20231017_132317_196
2118,1.0585986,4.253555,8.828042,20231017_132317_199
2119,1.0154883,4.296665,8.880733,20231017_132317_201
2120,1.0633887,4.253555,8.746612,20231017_132317_204
2121,1.0825489,4.2439747,8.780142,20231017_132317_207
2122,1.0250684,4.3062453,8.847202,20231017_132317_209
2123,1.0777588,4.287085,8.808882,20231017_132317_211
2124,1.0873389,4.3541455,8.760982,20231017_132317_214
2125,1.096919,4.378096,8.784932,20231017_132317_217
2126,1.1208692,4.3445654,8.760982,20231017_132317_219
2127,1.0490186,4.406836,8.789722,20231017_132317_221
2128,1.0825489,4.4499464,8.746612,20231017_132317_224
2129,1.1160791,4.430786,8.722662,20231017_132317_227
2130,1.101709,4.4834766,8.737032,20231017_132317_229
2131,1.0777588,4.488267,8.808882,20231017_132317_232
2132,1.0633887,4.397256,8.832832,20231017_132317_235
2133,1.0250684,4.397256,8.669971,20231017_132317_237
2134,1.0346485,4.3397756,8.713081,20231017_132317_240
2135,1.0490186,4.1721244,8.713081,20231017_132317_242
2136,1.0825489,4.2343946,8.794512,20231017_132317_245
2137,1.0346485,4.181704,8.751402,20231017_132317_247
2138,1.0633887,4.167334,8.770562,20231017_132317_250
2139,1.101709,4.1864944,8.871153,20231017_132317_252
2140,1.1112891,4.1960745,8.818462,20231017_132317_255
2141,1.096919,4.1864944,8.880733,20231017_132317_257
2142,1.1112891,4.181704,8.823253,20231017_132317_260
2143,1.0394385,4.2056546,8.851993,20231017_132317_263
2144,1.092129,4.129014,8.837623,20231017_132317_265
2145,1.0777588,4.2152348,8.808882,20231017_132317_267
2146,1.0394385,4.152964,8.713081,20231017_132317_270
2147,1.0059083,4.176914,8.737032,20231017_132317_272
2148,1.0346485,4.2296047,8.746612,20231017_132317_275
2149,1.0346485,4.2343946,8.823253,20231017_132317_278
2150,1.0825489,4.263135,8.784932,20231017_132317_280
2151,1.0202783,4.4116263,8.799302,20231017_132317_282
2152,1.096919,4.6032276,8.813672,20231017_132317_285
2153,1.1208692,4.617598,8.794512,20231017_132317_288
2154,1.0681788,4.5888577,8.808882,20231017_132317_290
2155,1.1639795,4.631968,8.885523,20231017_132317_292
2156,1.101709,4.536167,8.837623,20231017_132317_295
2157,1.1400293,4.488267,8.880733,20231017_132317_297
2158,1.092129,4.4547367,8.823253,20231017_132317_300
2159,1.1160791,4.406836,8.756192,20231017_132317_302
2160,1.1304493,4.4499464,8.756192,20231017_132317_305
2161,1.0825489,4.373306,8.732242,20231017_132317_308
2162,1.1256592,4.3254056,8.789722,20231017_132317_310
2163,1.1256592,4.2439747,8.684341,20231017_132317_313
2164,1.1112891,4.2343946,8.703502,20231017_132317_316
2165,1.1591895,4.1721244,8.732242,20231017_132317_318
2166,1.1112891,4.167334,8.62207,20231017_132317_320
2167,1.1064991,4.1242237,8.679551,20231017_132317_323
2168,1.1352394,4.133804,8.674761,20231017_132317_326
2169,1.0825489,4.129014,8.703502,20231017_132317_328
2170,1.1112891,4.2008643,8.737032,20231017_132317_331
2171,1.1160791,4.138594,8.756192,20231017_132317_333
2172,1.1208692,4.2152348,8.808882,20231017_132317_336
2173,1.1448194,4.253555,8.909473,20231017_132317_339
2174,1.1687696,4.1625443,8.832832,20231017_132317_341
2175,1.0825489,4.282295,8.851993,20231017_132317_343
2176,1.1064991,4.2008643,8.837623,20231017_132317_346
2177,1.0825489,4.2296047,8.861572,20231017_132317_348
2178,1.0394385,4.263135,8.866363,20231017_132317_351
2179,1.0873389,4.2918754,8.832832,20231017_132317_353
2180,1.0825489,4.2439747,8.828042,20231017_132317_356
2181,1.0825489,4.3158255,8.851993,20231017_132317_360
2182,1.0490186,4.296665,8.933423,20231017_132317_361
2183,1.0442286,4.3158255,8.923843,20231017_132317_364
2184,1.0490186,4.2343946,8.957374,20231017_132317_367
2185,1.0011182,4.287085,8.861572,20231017_132317_369
2186,1.0633887,4.3541455,8.784932,20231017_132317_371
2187,1.0442286,4.4212065,8.784932,20231017_132317_374
2188,1.1112891,4.368516,8.866363,20231017_132317_376
2189,1.0681788,4.287085,8.842413,20231017_132317_380
2190,0.97237796,4.382886,8.856783,20231017_132317_382
2191,1.0777588,4.4595265,8.938213,20231017_132317_384
2192,1.0681788,4.430786,8.799302,20231017_132317_386
2193,1.0059083,4.406836,8.832832,20231017_132317_389
2194,1.0394385,4.3206153,8.914263,20231017_132317_391
2195,1.0394385,4.4451566,8.794512,20231017_132317_393
2196,1.0538087,4.373306,8.808882,20231017_132317_396
2197,1.0394385,4.368516,8.847202,20231017_132317_398
2198,1.0346485,4.3397756,8.851993,20231017_132317_401
2199,1.0298585,4.3493557,8.842413,20231017_132317_404
2200,1.0777588,4.3493557,8.804092,20231017_132317_406
2201,1.0585986,4.3206153,8.890313,20231017_132317_409
2202,0.9963282,4.3493557,8.775352,20231017_132317_412
2203,1.0538087,4.3493557,8.737032,20231017_132317_414
2204,1.0442286,4.3206153,8.813672,20231017_132317_416
2205,1.0729688,4.3493557,8.789722,20231017_132317_419
2206,1.0633887,4.2104445,8.737032,20231017_132317_421
2207,1.0777588,4.2200246,8.847202,20231017_132317_424
2208,1.0202783,4.3158255,8.832832,20231017_132317_426
2209,1.0825489,4.2200246,8.842413,20231017_132317_429
2210,1.0538087,4.2296047,8.861572,20231017_132317_432
2211,1.0681788,4.2343946,8.794512,20231017_132317_434
2212,1.101709,4.2248144,8.808882,20231017_132317_437
2213,1.1256592,4.267925,8.823253,20231017_132317_439
2214,1.0873389,4.287085,8.799302,20231017_132317_442
2215,1.0825489,4.2343946,8.765772,20231017_132317_445
2216,1.1496094,4.239185,8.775352,20231017_132317_447
2217,1.1208692,4.272715,8.756192,20231017_132317_450
2218,1.1543995,4.2918754,8.703502,20231017_132317_453
2219,1.0394385,4.272715,8.703502,20231017_132317_455
2220,1.1304493,4.3062453,8.722662,20231017_132317_457
2221,1.0873389,4.2439747,8.775352,20231017_132317_460
2222,1.1064991,4.3541455,8.698711,20231017_132317_463
2223,1.1256592,4.239185,8.708291,20231017_132317_466
2224,1.101709,4.258345,8.746612,20231017_132317_468
2225,1.1687696,4.258345,8.655601,20231017_132317_471
2226,1.0585986,4.272715,8.756192,20231017_132317_472
2227,1.1496094,4.3493557,8.732242,20231017_132317_475
2228,1.1160791,4.3062453,8.756192,20231017_132317_477
2229,1.1160791,4.311035,8.679551,20231017_132317_480
2230,1.092129,4.3254056,8.722662,20231017_132317_482
2231,1.0873389,4.272715,8.775352,20231017_132317_485
2232,1.1208692,4.3541455,8.717872,20231017_132317_488
2233,1.1304493,4.3062453,8.689131,20231017_132317_490
2234,1.0585986,4.392466,8.646021,20231017_132317_493
2235,1.0777588,4.296665,8.765772,20231017_132317_495
2236,1.0729688,4.3254056,8.746612,20231017_132317_498
2237,1.0729688,4.3158255,8.713081,20231017_132317_500
2238,1.0729688,4.358936,8.871153,20231017_132317_503
2239,1.0729688,4.248765,8.775352,20231017_132317_506
2240,1.0633887,4.3445654,8.804092,20231017_132317_508
2241,1.0873389,4.267925,8.760982,20231017_132317_511
2242,1.0490186,4.282295,8.818462,20231017_132317_513
2243,1.101709,4.2248144,8.828042,20231017_132317_516
2244,1.0633887,4.282295,8.832832,20231017_132317_518
2245,1.1208692,4.248765,8.804092,20231017_132317_521
2246,1.0250684,4.3637257,8.818462,20231017_132317_523
2247,1.1064991,4.2056546,8.856783,20231017_132317_526
2248,1.1064991,4.248765,8.866363,20231017_132317_528
2249,1.0825489,4.239185,8.890313,20231017_132317_531
2250,1.0633887,4.3301954,8.861572,20231017_132317_533
2251,1.0777588,4.387676,8.928633,20231017_132317_536
2252,1.101709,4.3301954,8.976534,20231017_132317_538
2253,1.1160791,4.406836,8.928633,20231017_132317_541
2254,1.0777588,4.397256,8.899893,20231017_132317_543
2255,1.1256592,4.387676,8.923843,20231017_132317_546
2256,1.0442286,4.387676,8.880733,20231017_132317_548
2257,1.0825489,4.3158255,8.847202,20231017_132317_551
2258,1.0633887,4.387676,8.866363,20231017_132317_554
2259,1.0585986,4.248765,8.875943,20231017_132317_556
2260,1.0394385,4.3014555,8.904683,20231017_132317_559
2261,1.1064991,4.272715,8.851993,20231017_132317_561
2262,1.0585986,4.272715,8.842413,20231017_132317_564
2263,1.101709,4.258345,8.842413,20231017_132317_566
