frame,acc_x,acc_y,acc_z,timestamp
1,0.5556446,3.999683,8.760982,20231017_132252_484
2,0.5029541,3.9661524,8.871153,20231017_132252_504
3,0.45505372,4.028423,8.756192,20231017_132252_505
4,0.46463382,4.0044727,8.669971,20231017_132252_505
5,0.4981641,3.9853127,8.698711,20231017_132252_505
6,0.5843848,3.903882,8.669971,20231017_132252_505
7,0.6466553,4.0811133,8.660391,20231017_132252_506
8,0.63707525,3.9661524,8.708291,20231017_132252_506
9,0.5843848,3.9901028,8.765772,20231017_132252_506
10,0.5891748,3.9757326,8.856783,20231017_132252_506
11,0.6227051,3.9517825,8.784932,20231017_132252_509
12,0.6227051,3.9901028,8.842413,20231017_132252_510
13,0.57001466,4.0427933,8.708291,20231017_132252_513
14,0.56522465,4.014053,8.626861,20231017_132252_515
15,0.6179151,3.9613624,8.425679,20231017_132252_518
16,0.5748047,3.8799317,8.349038,20231017_132252_520
17,0.4981641,3.9757326,8.392149,20231017_132252_531
18,0.53169435,4.0427933,8.4304695,20231017_132252_531
19,0.5364844,4.152964,8.435259,20231017_132252_532
20,0.6179151,4.191284,8.57896,20231017_132252_532
21,0.5508545,4.1960745,8.56938,20231017_132252_533
22,0.5556446,4.133804,8.674761,20231017_132252_535
23,0.5508545,4.129014,8.717872,20231017_132252_538
24,0.52690434,4.119434,8.756192,20231017_132252_541
25,0.4742139,4.152964,8.717872,20231017_132252_543
26,0.5412744,4.1242237,8.856783,20231017_132252_546
27,0.6322852,4.023633,8.885523,20231017_132252_548
28,0.5604346,4.1002736,8.938213,20231017_132252_551
29,0.50774413,4.133804,8.952583,20231017_132252_553
30,0.46463382,4.033213,8.990904,20231017_132252_557
31,0.45026368,4.014053,9.096285,20231017_132252_558
32,0.45984375,4.0811133,9.1202345,20231017_132252_561
33,0.45505372,4.061953,8.938213,20231017_132252_563
34,0.49337405,4.033213,9.0148535,20231017_132252_566
35,0.4981641,4.0811133,8.971744,20231017_132252_568
36,0.4981641,4.014053,8.856783,20231017_132252_571
37,0.5029541,4.0667434,8.909473,20231017_132252_574
38,0.488584,4.0523734,8.957374,20231017_132252_576
39,0.50774413,4.023633,8.938213,20231017_132252_579
40,0.48379397,4.1050634,8.856783,20231017_132252_581
41,0.44547364,4.023633,8.804092,20231017_132252_583
42,0.46463382,4.061953,8.746612,20231017_132252_586
43,0.47900394,4.133804,8.708291,20231017_132252_589
44,0.45984375,4.143384,8.626861,20231017_132252_591
45,0.4406836,4.0571632,8.698711,20231017_132252_594
46,0.5029541,4.0906935,8.665181,20231017_132252_597
47,0.3879932,4.1098537,8.698711,20231017_132252_599
48,0.45984375,4.023633,8.756192,20231017_132252_601
49,0.46463382,4.023633,8.823253,20231017_132252_604
50,0.5412744,4.0523734,8.861572,20231017_132252_606
51,0.50774413,3.9469924,8.995694,20231017_132252_610
52,0.57001466,4.014053,8.971744,20231017_132252_612
53,0.5891748,3.903882,9.110655,20231017_132252_614
54,0.57959473,3.9134622,9.172925,20231017_132252_617
55,0.56522465,4.0571632,9.153765,20231017_132252_619
56,0.51732427,4.023633,9.129815,20231017_132252_622
57,0.53169435,4.028423,9.067544,20231017_132252_624
58,0.48379397,4.047583,9.010064,20231017_132252_627
59,0.43589357,4.0763235,9.0004835,20231017_132252_629
60,0.49337405,4.061953,8.947793,20231017_132252_632
61,0.4263135,4.061953,8.952583,20231017_132252_634
62,0.4981641,4.0044727,8.866363,20231017_132252_637
63,0.43110353,4.014053,8.875943,20231017_132252_640
64,0.42152345,4.061953,8.8951025,20231017_132252_642
65,0.4981641,4.038003,8.899893,20231017_132252_645
66,0.5125342,3.9134622,8.990904,20231017_132252_648
67,0.50774413,4.071533,8.957374,20231017_132252_649
68,0.5412744,4.0044727,8.943004,20231017_132252_652
69,0.5939649,4.0044727,9.024434,20231017_132252_654
70,0.6179151,4.047583,9.086704,20231017_132252_657
71,0.60354495,4.0427933,9.144185,20231017_132252_660
72,0.5987549,4.0763235,9.105865,20231017_132252_662
73,0.5987549,4.0763235,9.043594,20231017_132252_665
74,0.5748047,3.9469924,9.053174,20231017_132252_667
75,0.5939649,4.033213,9.034014,20231017_132252_670
76,0.5508545,4.0763235,9.053174,20231017_132252_672
77,0.488584,4.0427933,9.038804,20231017_132252_675
78,0.5939649,4.0763235,9.072334,20231017_132252_677
79,0.56522465,4.1002736,9.172925,20231017_132252_680
80,0.5604346,4.047583,9.034014,20231017_132252_683
81,0.5460645,4.0667434,9.163345,20231017_132252_685
82,0.52690434,4.0667434,9.182506,20231017_132252_687
83,0.5843848,4.014053,9.2256155,20231017_132252_690
84,0.62749517,4.047583,9.177715,20231017_132252_694
85,0.57959473,4.033213,9.211246,20231017_132252_695
86,0.53169435,4.1098537,9.081915,20231017_132252_698
87,0.5364844,4.0427933,9.043594,20231017_132252_700
88,0.5508545,4.138594,8.947793,20231017_132252_702
89,0.53169435,4.129014,8.919053,20231017_132252_706
90,0.57001466,4.0811133,8.904683,20231017_132252_708
91,0.5364844,4.0427933,8.861572,20231017_132252_710
92,0.51732427,4.0906935,8.909473,20231017_132252_713
93,0.5748047,4.0859036,8.928633,20231017_132252_715
94,0.6179151,4.0667434,8.899893,20231017_132252_718
95,0.5508545,4.1002736,8.966953,20231017_132252_720
96,0.613125,4.148174,8.899893,20231017_132252_723
97,0.5987549,4.0906935,8.890313,20231017_132252_725
98,0.613125,4.0859036,8.818462,20231017_132252_728
99,0.60354495,4.095484,8.885523,20231017_132252_730
100,0.60833496,4.1050634,8.851993,20231017_132252_733
101,0.7232959,4.0571632,8.952583,20231017_132252_735
102,0.7807764,3.999683,8.971744,20231017_132252_738
103,0.75203615,4.0523734,8.909473,20231017_132252_741
104,0.71371585,4.047583,8.943004,20231017_132252_744
105,0.7424561,4.0811133,8.971744,20231017_132252_746
106,0.7232959,4.071533,9.0004835,20231017_132252_748
107,0.79993653,4.0906935,8.947793,20231017_132252_751
108,0.78556645,4.0427933,8.952583,20231017_132252_753
109,0.7951465,4.071533,8.966953,20231017_132252_756
110,0.7232959,4.0571632,8.875943,20231017_132252_758
111,0.6993457,4.0427933,8.899893,20231017_132252_761
112,0.6849756,4.0523734,8.808882,20231017_132252_764
113,0.6993457,4.0523734,8.823253,20231017_132252_767
114,0.6227051,4.0571632,8.765772,20231017_132252_769
115,0.64186525,4.061953,8.751402,20231017_132252_771
116,0.5891748,4.061953,8.856783,20231017_132252_774
117,0.5460645,3.9853127,8.722662,20231017_132252_776
118,0.5412744,4.0523734,8.732242,20231017_132252_779
119,0.51732427,4.047583,8.804092,20231017_132252_781
120,0.5221143,4.033213,8.789722,20231017_132252_784
121,0.5412744,3.9757326,8.804092,20231017_132252_786
122,0.5556446,3.9948928,8.919053,20231017_132252_789
123,0.57959473,4.023633,8.947793,20231017_132252_792
124,0.4981641,4.047583,8.919053,20231017_132252_794
125,0.5125342,4.061953,8.847202,20231017_132252_797
126,0.6322852,4.018843,8.885523,20231017_132252_799
127,0.5939649,4.014053,8.909473,20231017_132252_802
128,0.60354495,4.1002736,8.919053,20231017_132252_804
129,0.5748047,4.0811133,8.885523,20231017_132252_807
130,0.6322852,4.1002736,8.8951025,20231017_132252_809
131,0.613125,4.1050634,8.8951025,20231017_132252_812
132,0.56522465,4.119434,8.952583,20231017_132252_814
133,0.613125,4.0427933,8.8951025,20231017_132252_817
134,0.60354495,4.0763235,8.957374,20231017_132252_819
135,0.5508545,4.038003,8.923843,20231017_132252_822
136,0.5891748,4.1050634,8.976534,20231017_132252_824
137,0.5891748,4.138594,8.943004,20231017_132252_827
138,0.52690434,4.0763235,8.990904,20231017_132252_830
139,0.5412744,4.061953,9.024434,20231017_132252_832
140,0.5125342,4.061953,8.947793,20231017_132252_835
141,0.5412744,4.0906935,9.034014,20231017_132252_837
142,0.5556446,4.0859036,9.005274,20231017_132252_840
143,0.5460645,4.033213,9.0148535,20231017_132252_842
144,0.60833496,4.018843,9.072334,20231017_132252_845
145,0.5508545,4.014053,9.077125,20231017_132252_847
146,0.5460645,4.095484,8.928633,20231017_132252_850
147,0.57959473,4.018843,8.909473,20231017_132252_852
148,0.56522465,4.1002736,8.971744,20231017_132252_855
149,0.5843848,3.9709425,8.866363,20231017_132252_857
150,0.6179151,4.038003,8.813672,20231017_132252_860
151,0.5891748,4.028423,8.837623,20231017_132252_862
152,0.5556446,4.028423,8.861572,20231017_132252_865
153,0.62749517,4.023633,8.794512,20231017_132252_868
154,0.5939649,4.014053,8.818462,20231017_132252_870
155,0.5748047,3.9374123,8.856783,20231017_132252_873
156,0.613125,3.9853127,8.875943,20231017_132252_875
157,0.6179151,4.0811133,8.847202,20231017_132252_878
158,0.63707525,4.018843,8.818462,20231017_132252_880
159,0.613125,3.899092,8.875943,20231017_132252_883
160,0.6658155,4.061953,8.866363,20231017_132252_885
161,0.67539555,4.018843,8.966953,20231017_132252_888
162,0.6322852,3.9901028,9.0148535,20231017_132252_891
163,0.60354495,4.023633,9.038804,20231017_132252_893
164,0.67539555,3.999683,9.062755,20231017_132252_895
165,0.6514453,4.018843,9.010064,20231017_132252_898
166,0.6179151,4.009263,9.019644,20231017_132252_900
167,0.57959473,4.047583,8.976534,20231017_132252_903
168,0.5939649,4.033213,8.966953,20231017_132252_906
169,0.5939649,4.014053,8.928633,20231017_132252_908
170,0.6179151,4.129014,8.976534,20231017_132252_911
171,0.6514453,4.129014,8.899893,20231017_132252_913
172,0.5891748,4.1960745,8.933423,20231017_132252_916
173,0.6179151,4.138594,8.813672,20231017_132252_918
174,0.5748047,4.095484,8.842413,20231017_132252_921
175,0.5843848,4.129014,8.823253,20231017_132252_923
176,0.5460645,4.152964,8.679551,20231017_132252_926
177,0.5460645,4.1002736,8.641231,20231017_132252_928
178,0.57001466,4.061953,8.823253,20231017_132252_931
179,0.4742139,4.014053,8.708291,20231017_132252_934
180,0.5604346,3.9853127,8.756192,20231017_132252_936
181,0.5125342,4.028423,8.856783,20231017_132252_939
182,0.5412744,3.9805226,8.904683,20231017_132252_941
183,0.5891748,3.8655617,8.880733,20231017_132252_944
184,0.5748047,3.8224514,9.034014,20231017_132252_946
185,0.5987549,3.8416114,9.0004835,20231017_132252_949
186,0.5221143,3.8416114,9.019644,20231017_132252_951
187,0.51732427,3.8416114,9.043594,20231017_132252_954
188,0.4406836,3.923042,8.990904,20231017_132252_956
189,0.5029541,3.9565725,9.0004835,20231017_132252_959
190,0.5364844,3.8751419,8.966953,20231017_132252_961
191,0.52690434,3.8847218,9.0004835,20231017_132252_964
192,0.5029541,3.9278321,8.990904,20231017_132252_966
193,0.52690434,3.999683,8.962164,20231017_132252_969
194,0.5364844,4.119434,8.947793,20231017_132252_972
195,0.5125342,4.181704,8.890313,20231017_132252_974
196,0.46942386,4.1625443,8.919053,20231017_132252_976
197,0.62749517,4.191284,8.928633,20231017_132252_979
198,0.60354495,4.1960745,8.837623,20231017_132252_982
199,0.6658155,4.248765,8.770562,20231017_132252_984
200,0.6227051,4.267925,8.770562,20231017_132252_987
201,0.6993457,4.133804,8.703502,20231017_132252_989
202,0.6945557,4.1864944,8.775352,20231017_132252_992
203,0.7232959,4.0811133,8.722662,20231017_132252_994
204,0.6945557,4.0667434,8.784932,20231017_132252_997
205,0.6610254,4.018843,8.875943,20231017_132252_999
206,0.6466553,4.028423,8.976534,20231017_132253_002
207,0.7041358,3.9469924,8.923843,20231017_132253_005
208,0.64186525,3.9805226,8.943004,20231017_132253_007
209,0.7041358,3.923042,8.952583,20231017_132253_010
210,0.5748047,3.903882,8.943004,20231017_132253_012
211,0.613125,3.899092,8.933423,20231017_132253_015
212,0.57959473,3.8128712,8.923843,20231017_132253_017
213,0.5939649,3.8751419,8.957374,20231017_132253_020
214,0.5556446,3.8703518,8.938213,20231017_132253_022
215,0.5412744,3.8895118,8.995694,20231017_132253_025
216,0.60354495,3.9565725,8.976534,20231017_132253_027
217,0.5556446,3.8368216,9.0148535,20231017_132253_031
218,0.56522465,3.9326222,8.957374,20231017_132253_033
219,0.57959473,3.9422023,9.029224,20231017_132253_035
220,0.56522465,3.9901028,9.0004835,20231017_132253_037
221,0.488584,3.9901028,9.029224,20231017_132253_040
222,0.56522465,4.047583,9.0004835,20231017_132253_042
223,0.5604346,3.9661524,8.986114,20231017_132253_045
224,0.57959473,3.9374123,8.990904,20231017_132253_048
225,0.5364844,4.047583,9.024434,20231017_132253_050
226,0.5364844,4.014053,8.947793,20231017_132253_053
227,0.60354495,4.0763235,8.952583,20231017_132253_055
228,0.5364844,4.0523734,9.0004835,20231017_132253_058
229,0.51732427,4.047583,8.957374,20231017_132253_060
230,0.4981641,4.0523734,8.923843,20231017_132253_063
231,0.5412744,4.1002736,8.933423,20231017_132253_065
232,0.5508545,4.0906935,8.871153,20231017_132253_068
233,0.5364844,4.0667434,8.966953,20231017_132253_070
234,0.5221143,4.129014,8.957374,20231017_132253_073
235,0.57959473,4.1098537,8.957374,20231017_132253_075
236,0.57959473,4.1098537,9.034014,20231017_132253_078
237,0.46942386,4.1242237,8.938213,20231017_132253_080
238,0.53169435,4.1098537,9.034014,20231017_132253_083
239,0.5412744,4.1002736,8.938213,20231017_132253_085
240,0.5364844,4.095484,8.952583,20231017_132253_088
241,0.49337405,4.0667434,8.986114,20231017_132253_091
242,0.56522465,4.0906935,8.981323,20231017_132253_093
243,0.5221143,4.1050634,8.947793,20231017_132253_096
244,0.5843848,4.0811133,9.067544,20231017_132253_098
245,0.57959473,4.1146436,9.024434,20231017_132253_101
246,0.62749517,4.0906935,9.010064,20231017_132253_103
247,0.5748047,4.0667434,8.981323,20231017_132253_106
248,0.613125,3.9948928,8.928633,20231017_132253_109
249,0.57959473,4.061953,8.909473,20231017_132253_111
250,0.6706055,4.047583,8.866363,20231017_132253_114
251,0.67539555,4.0859036,8.813672,20231017_132253_116
252,0.6514453,4.119434,8.861572,20231017_132253_119
253,0.6993457,3.999683,8.856783,20231017_132253_121
254,0.7089258,4.047583,8.914263,20231017_132253_124
255,0.74724615,4.0571632,8.890313,20231017_132253_127
256,0.7185059,4.1050634,8.933423,20231017_132253_129
257,0.7424561,4.1098537,8.952583,20231017_132253_132
258,0.6993457,4.119434,8.947793,20231017_132253_134
259,0.728086,4.014053,9.072334,20231017_132253_137
260,0.74724615,4.0859036,9.034014,20231017_132253_139
261,0.68976563,4.0427933,9.072334,20231017_132253_142
262,0.613125,4.0523734,9.024434,20231017_132253_144
263,0.62749517,3.9709425,9.072334,20231017_132253_147
264,0.6658155,4.0571632,8.986114,20231017_132253_149
265,0.6227051,4.071533,8.995694,20231017_132253_152
266,0.57959473,3.999683,8.986114,20231017_132253_154
267,0.60833496,4.0571632,8.923843,20231017_132253_157
268,0.613125,4.0523734,8.957374,20231017_132253_159
269,0.6179151,4.0667434,8.933423,20231017_132253_161
270,0.63707525,4.071533,8.966953,20231017_132253_164
271,0.6466553,4.028423,8.943004,20231017_132253_167
272,0.63707525,4.1050634,8.995694,20231017_132253_169
273,0.6466553,4.0427933,8.938213,20231017_132253_172
274,0.6849756,4.0427933,9.019644,20231017_132253_174
275,0.71371585,4.0906935,8.990904,20231017_132253_177
276,0.68976563,4.0859036,8.952583,20231017_132253_179
277,0.62749517,4.0571632,8.995694,20231017_132253_182
278,0.64186525,4.033213,8.851993,20231017_132253_184
279,0.64186525,4.0763235,8.866363,20231017_132253_187
280,0.6514453,4.1146436,8.851993,20231017_132253_190
281,0.6227051,4.167334,8.842413,20231017_132253_192
282,0.6706055,4.0523734,8.899893,20231017_132253_194
283,0.63707525,4.1098537,8.804092,20231017_132253_197
284,0.6179151,4.0906935,8.828042,20231017_132253_200
285,0.5939649,4.129014,8.866363,20231017_132253_202
286,0.6322852,4.1146436,8.8951025,20231017_132253_204
287,0.60354495,4.1098537,8.904683,20231017_132253_207
288,0.71371585,4.0811133,8.885523,20231017_132253_210
289,0.6849756,4.047583,8.966953,20231017_132253_212
290,0.6706055,4.0571632,8.952583,20231017_132253_215
291,0.6514453,4.1625443,8.890313,20231017_132253_217
292,0.60833496,4.1721244,8.890313,20231017_132253_220
293,0.57001466,4.152964,8.8951025,20231017_132253_223
294,0.60833496,4.033213,8.899893,20231017_132253_225
295,0.63707525,4.061953,8.828042,20231017_132253_227
296,0.6227051,4.0667434,8.823253,20231017_132253_230
297,0.5508545,4.095484,8.837623,20231017_132253_233
298,0.57959473,4.023633,8.684341,20231017_132253_235
299,0.56522465,4.047583,8.780142,20231017_132253_238
300,0.5508545,4.038003,8.741821,20231017_132253_240
301,0.45026368,4.071533,8.765772,20231017_132253_242
302,0.51732427,4.0571632,8.751402,20231017_132253_245
303,0.5364844,4.119434,8.851993,20231017_132253_248
304,0.51732427,4.119434,8.871153,20231017_132253_251
305,0.5412744,4.0906935,8.880733,20231017_132253_253
306,0.56522465,4.095484,8.8951025,20231017_132253_255
307,0.4981641,4.0811133,8.8951025,20231017_132253_258
308,0.56522465,3.999683,8.966953,20231017_132253_261
309,0.5748047,4.0044727,8.928633,20231017_132253_263
310,0.6179151,3.9901028,8.914263,20231017_132253_265
311,0.6179151,4.023633,8.981323,20231017_132253_268
312,0.5508545,3.9901028,8.914263,20231017_132253_271
313,0.56522465,4.1050634,8.976534,20231017_132253_273
314,0.57959473,4.1098537,9.034014,20231017_132253_276
315,0.5748047,3.9709425,9.024434,20231017_132253_278
316,0.57001466,4.014053,9.0148535,20231017_132253_281
317,0.5556446,4.0427933,8.962164,20231017_132253_283
318,0.5748047,4.0811133,8.981323,20231017_132253_286
319,0.5891748,4.0811133,8.995694,20231017_132253_288
320,0.57001466,4.061953,8.995694,20231017_132253_291
321,0.6322852,4.0044727,8.957374,20231017_132253_293
322,0.6466553,4.009263,8.875943,20231017_132253_296
323,0.68976563,4.1002736,8.832832,20231017_132253_298
324,0.6227051,4.047583,8.856783,20231017_132253_301
325,0.6466553,4.0859036,8.818462,20231017_132253_304
326,0.6179151,4.0427933,8.866363,20231017_132253_306
327,0.5221143,4.0763235,8.899893,20231017_132253_309
328,0.57959473,4.0667434,8.875943,20231017_132253_311
329,0.5891748,4.0523734,8.851993,20231017_132253_314
330,0.5604346,4.009263,8.837623,20231017_132253_316
331,0.60833496,4.157754,8.722662,20231017_132253_319
332,0.5125342,4.0571632,8.713081,20231017_132253_321
333,0.5508545,4.1002736,8.732242,20231017_132253_324
334,0.5843848,4.133804,8.717872,20231017_132253_326
335,0.5364844,4.0859036,8.679551,20231017_132253_329
336,0.5987549,4.0571632,8.823253,20231017_132253_332
337,0.6179151,4.095484,8.713081,20231017_132253_334
338,0.62749517,4.1050634,8.698711,20231017_132253_336
339,0.62749517,4.1050634,8.737032,20231017_132253_339
340,0.68976563,4.143384,8.760982,20231017_132253_341
341,0.7185059,4.119434,8.885523,20231017_132253_344
342,0.68976563,4.0667434,8.823253,20231017_132253_347
343,0.6706055,4.152964,8.890313,20231017_132253_349
344,0.68018556,4.157754,8.928633,20231017_132253_352
345,0.6322852,4.0667434,8.904683,20231017_132253_354
346,0.5939649,4.0523734,8.890313,20231017_132253_357
347,0.60833496,4.0667434,8.899893,20231017_132253_359
348,0.6179151,4.038003,8.875943,20231017_132253_362
349,0.6227051,4.0571632,8.813672,20231017_132253_364
350,0.6322852,4.023633,8.823253,20231017_132253_367
351,0.5891748,4.028423,8.765772,20231017_132253_370
352,0.67539555,4.0859036,8.746612,20231017_132253_372
353,0.60833496,4.061953,8.808882,20231017_132253_375
354,0.6610254,4.047583,8.866363,20231017_132253_377
355,0.6227051,4.047583,8.808882,20231017_132253_380
356,0.6514453,4.071533,8.746612,20231017_132253_382
357,0.60354495,4.038003,8.794512,20231017_132253_385
358,0.5556446,4.0044727,8.717872,20231017_132253_387
359,0.5843848,4.071533,8.770562,20231017_132253_390
360,0.52690434,4.0523734,8.727451,20231017_132253_393
361,0.5460645,4.038003,8.727451,20231017_132253_395
362,0.5125342,4.038003,8.794512,20231017_132253_397
363,0.5556446,4.038003,8.756192,20231017_132253_400
364,0.52690434,4.018843,8.794512,20231017_132253_402
365,0.5508545,4.014053,8.794512,20231017_132253_405
366,0.5843848,4.033213,8.808882,20231017_132253_408
367,0.5556446,4.009263,8.866363,20231017_132253_410
368,0.5556446,4.0427933,8.914263,20231017_132253_413
369,0.53169435,3.9853127,8.832832,20231017_132253_416
370,0.5939649,3.999683,9.010064,20231017_132253_418
371,0.5221143,4.028423,8.923843,20231017_132253_420
372,0.5412744,4.018843,8.875943,20231017_132253_423
373,0.5412744,3.999683,8.880733,20231017_132253_425
374,0.5891748,4.033213,8.919053,20231017_132253_428
375,0.5460645,4.0859036,9.005274,20231017_132253_430
376,0.6179151,4.1146436,8.971744,20231017_132253_433
377,0.64186525,4.1098537,9.077125,20231017_132253_435
378,0.613125,4.061953,9.034014,20231017_132253_438
379,0.5987549,4.0523734,8.962164,20231017_132253_440
380,0.52690434,4.1002736,8.971744,20231017_132253_443
381,0.5029541,4.061953,8.933423,20231017_132253_446
382,0.47900394,3.9853127,8.875943,20231017_132253_448
383,0.5221143,4.018843,8.899893,20231017_132253_451
384,0.45505372,4.0859036,8.923843,20231017_132253_453
385,0.49337405,4.028423,8.856783,20231017_132253_455
386,0.4406836,4.1146436,8.856783,20231017_132253_458
387,0.48379397,4.061953,8.914263,20231017_132253_461
388,0.50774413,4.023633,8.823253,20231017_132253_463
389,0.5508545,4.014053,8.885523,20231017_132253_466
390,0.5604346,4.0859036,8.8951025,20231017_132253_469
391,0.46463382,4.023633,8.971744,20231017_132253_471
392,0.57959473,4.0044727,9.005274,20231017_132253_474
393,0.5508545,4.023633,9.029224,20231017_132253_476
394,0.51732427,3.9853127,9.129815,20231017_132253_478
395,0.5412744,4.014053,9.153765,20231017_132253_481
396,0.5412744,4.033213,9.158555,20231017_132253_483
397,0.5987549,3.999683,9.216036,20231017_132253_486
398,0.613125,4.014053,9.177715,20231017_132253_489
399,0.613125,3.9853127,9.278306,20231017_132253_491
400,0.613125,4.0763235,9.187295,20231017_132253_494
401,0.6562354,4.0763235,9.187295,20231017_132253_496
402,0.60354495,4.1002736,9.163345,20231017_132253_499
403,0.613125,4.0571632,9.216036,20231017_132253_501
404,0.5987549,4.1146436,9.192085,20231017_132253_504
405,0.6514453,4.0044727,9.172925,20231017_132253_506
406,0.5748047,4.028423,9.091495,20231017_132253_509
407,0.5939649,4.014053,9.096285,20231017_132253_512
408,0.5125342,3.9517825,9.134604,20231017_132253_514
409,0.4981641,4.0044727,9.077125,20231017_132253_517
410,0.5748047,3.9948928,9.125025,20231017_132253_519
411,0.5364844,4.028423,9.115445,20231017_132253_522
412,0.52690434,3.9805226,8.995694,20231017_132253_525
413,0.5939649,3.9948928,9.010064,20231017_132253_527
414,0.64186525,4.033213,8.952583,20231017_132253_529
415,0.613125,3.9901028,9.0148535,20231017_132253_532
416,0.6322852,3.9853127,9.010064,20231017_132253_534
417,0.613125,4.023633,8.933423,20231017_132253_537
418,0.60354495,3.9565725,9.038804,20231017_132253_539
419,0.5939649,3.9565725,9.034014,20231017_132253_542
420,0.56522465,3.9805226,9.062755,20231017_132253_545
421,0.52690434,3.999683,9.029224,20231017_132253_548
422,0.5843848,3.9661524,9.005274,20231017_132253_550
423,0.5556446,3.9565725,9.091495,20231017_132253_552
424,0.5556446,4.018843,9.158555,20231017_132253_555
425,0.60354495,4.018843,9.038804,20231017_132253_557
426,0.5556446,3.9853127,8.995694,20231017_132253_560
427,0.5939649,4.038003,8.990904,20231017_132253_562
428,0.56522465,3.9948928,8.976534,20231017_132253_564
429,0.6227051,4.071533,8.890313,20231017_132253_567
430,0.6227051,4.0811133,8.943004,20231017_132253_570
431,0.5939649,4.0427933,9.038804,20231017_132253_572
432,0.613125,4.0427933,9.019644,20231017_132253_575
433,0.6658155,4.1098537,8.971744,20231017_132253_577
434,0.5987549,4.1721244,8.990904,20231017_132253_580
435,0.57959473,4.1960745,8.919053,20231017_132253_582
436,0.50774413,4.2200246,8.799302,20231017_132253_585
437,0.43589357,4.157754,8.789722,20231017_132253_588
438,0.45984375,4.0859036,8.693921,20231017_132253_590
439,0.46942386,4.071533,8.660391,20231017_132253_593
440,0.5029541,4.0859036,8.722662,20231017_132253_595
441,0.4742139,3.9565725,8.693921,20231017_132253_597
442,0.47900394,3.9422023,8.751402,20231017_132253_600
443,0.5460645,3.903882,8.784932,20231017_132253_602
444,0.4742139,3.8847218,8.832832,20231017_132253_605
445,0.5364844,3.8464015,8.928633,20231017_132253_609
446,0.5125342,3.8799317,8.938213,20231017_132253_611
447,0.5221143,3.8703518,9.057964,20231017_132253_613
448,0.50774413,3.8751419,8.952583,20231017_132253_615
449,0.5460645,3.894302,8.986114,20231017_132253_618
450,0.57959473,3.923042,8.957374,20231017_132253_620
451,0.57959473,3.8416114,8.875943,20231017_132253_623
452,0.6227051,3.9134622,8.794512,20231017_132253_625
453,0.62749517,3.8655617,8.842413,20231017_132253_628
454,0.57001466,3.908672,8.875943,20231017_132253_631
455,0.52690434,4.061953,8.890313,20231017_132253_633
456,0.5748047,4.181704,8.799302,20231017_132253_635
457,0.5843848,4.148174,8.890313,20231017_132253_638
458,0.6849756,4.2104445,8.808882,20231017_132253_641
459,0.6706055,4.1146436,8.746612,20231017_132253_643
460,0.6610254,4.181704,8.832832,20231017_132253_646
461,0.732876,4.061953,8.784932,20231017_132253_648
462,0.6993457,4.152964,8.804092,20231017_132253_651
463,0.74724615,4.0523734,8.818462,20231017_132253_653
464,0.68976563,4.0427933,8.899893,20231017_132253_656
465,0.6610254,3.9661524,8.851993,20231017_132253_658
466,0.62749517,3.9374123,8.914263,20231017_132253_661
467,0.53169435,4.018843,8.823253,20231017_132253_663
468,0.5939649,3.9901028,8.847202,20231017_132253_666
469,0.5987549,3.9326222,8.866363,20231017_132253_669
470,0.5221143,3.9374123,8.990904,20231017_132253_671
471,0.5604346,4.009263,9.034014,20231017_132253_674
472,0.5412744,4.033213,9.0004835,20231017_132253_676
473,0.62749517,4.071533,9.0004835,20231017_132253_679
474,0.62749517,4.018843,9.029224,20231017_132253_681
475,0.5604346,4.018843,8.933423,20231017_132253_684
476,0.51732427,4.028423,8.933423,20231017_132253_686
477,0.5508545,4.023633,9.057964,20231017_132253_689
478,0.5843848,4.023633,9.010064,20231017_132253_691
479,0.5604346,4.014053,8.995694,20231017_132253_694
480,0.50774413,3.9757326,8.861572,20231017_132253_697
481,0.5412744,4.047583,8.8951025,20231017_132253_699
482,0.5125342,3.9613624,8.866363,20231017_132253_701
483,0.5029541,4.023633,8.976534,20231017_132253_704
484,0.5029541,4.0427933,8.885523,20231017_132253_707
485,0.48379397,4.047583,8.899893,20231017_132253_709
486,0.4981641,3.999683,8.928633,20231017_132253_712
487,0.5460645,4.119434,8.928633,20231017_132253_714
488,0.5748047,4.071533,8.890313,20231017_132253_717
489,0.5604346,4.0667434,8.890313,20231017_132253_719
490,0.57959473,4.1242237,8.813672,20231017_132253_722
491,0.5029541,4.138594,8.890313,20231017_132253_724
492,0.5748047,4.157754,8.741821,20231017_132253_727
493,0.57959473,4.1002736,8.784932,20231017_132253_730
494,0.5987549,4.1002736,8.794512,20231017_132253_732
495,0.5939649,4.1050634,8.804092,20231017_132253_734
496,0.5987549,4.157754,8.8951025,20231017_132253_737
497,0.5939649,4.1050634,8.875943,20231017_132253_739
498,0.5460645,4.157754,8.885523,20231017_132253_742
499,0.5364844,4.1864944,8.890313,20231017_132253_745
500,0.53169435,4.181704,8.919053,20231017_132253_747
501,0.62749517,4.1098537,8.943004,20231017_132253_750
502,0.64186525,4.148174,8.976534,20231017_132253_752
503,0.6849756,4.1050634,9.019644,20231017_132253_755
504,0.68018556,4.1146436,9.0148535,20231017_132253_757
505,0.6562354,4.095484,8.943004,20231017_132253_760
506,0.6706055,4.1098537,8.943004,20231017_132253_762
507,0.6562354,4.1002736,8.938213,20231017_132253_765
508,0.6466553,4.0044727,8.943004,20231017_132253_768
509,0.67539555,3.999683,9.029224,20231017_132253_770
510,0.68976563,4.014053,8.981323,20231017_132253_773
511,0.6322852,4.009263,8.952583,20231017_132253_775
512,0.6227051,4.033213,8.880733,20231017_132253_778
513,0.6322852,4.0044727,8.914263,20231017_132253_780
514,0.57959473,4.0811133,9.0148535,20231017_132253_783
515,0.5891748,3.9853127,8.923843,20231017_132253_785
516,0.6322852,4.0667434,8.976534,20231017_132253_788
517,0.60833496,4.038003,8.871153,20231017_132253_790
518,0.60354495,4.047583,8.823253,20231017_132253_793
519,0.62749517,4.138594,8.851993,20231017_132253_795
520,0.6610254,4.1098537,8.851993,20231017_132253_798
521,0.62749517,4.138594,8.804092,20231017_132253_800
522,0.6227051,4.181704,8.885523,20231017_132253_803
523,0.63707525,4.095484,8.847202,20231017_132253_805
524,0.67539555,4.1864944,8.794512,20231017_132253_808
525,0.6514453,4.129014,8.856783,20231017_132253_811
526,0.6945557,4.1960745,8.794512,20231017_132253_813
527,0.6562354,4.1864944,8.765772,20231017_132253_815
528,0.7376661,4.277505,8.751402,20231017_132253_818
529,0.613125,4.2104445,8.823253,20231017_132253_820
530,0.6227051,4.167334,8.765772,20231017_132253_823
531,0.64186525,4.2056546,8.722662,20231017_132253_826
532,0.6466553,4.2008643,8.804092,20231017_132253_828
533,0.6322852,4.191284,8.698711,20231017_132253_831
534,0.613125,4.138594,8.751402,20231017_132253_834
535,0.6514453,4.119434,8.708291,20231017_132253_836
536,0.6179151,4.129014,8.727451,20231017_132253_838
537,0.6466553,4.138594,8.784932,20231017_132253_841
538,0.728086,4.0763235,8.818462,20231017_132253_843
539,0.7089258,4.1146436,8.818462,20231017_132253_846
540,0.7376661,4.1242237,8.899893,20231017_132253_849
541,0.728086,4.033213,8.914263,20231017_132253_851
542,0.6514453,4.0523734,8.890313,20231017_132253_854
543,0.60833496,4.0427933,8.899893,20231017_132253_856
544,0.5939649,4.014053,8.938213,20231017_132253_858
545,0.5987549,4.1002736,8.842413,20231017_132253_861
546,0.5891748,4.0571632,8.856783,20231017_132253_864
547,0.613125,4.1098537,8.837623,20231017_132253_866
548,0.68018556,4.0763235,8.832832,20231017_132253_869
549,0.6179151,4.095484,8.904683,20231017_132253_871
550,0.5891748,4.1002736,8.832832,20231017_132253_874
551,0.6227051,4.095484,8.760982,20231017_132253_876
552,0.5891748,4.1146436,8.808882,20231017_132253_879
553,0.57001466,4.138594,8.770562,20231017_132253_881
554,0.5556446,4.2152348,8.784932,20231017_132253_884
555,0.56522465,4.1960745,8.741821,20231017_132253_887
556,0.5460645,4.296665,8.804092,20231017_132253_890
557,0.57959473,4.1960745,8.751402,20231017_132253_892
558,0.60833496,4.2343946,8.899893,20231017_132253_895
559,0.5460645,4.0906935,8.818462,20231017_132253_897
560,0.5891748,4.152964,8.856783,20231017_132253_899
561,0.5748047,4.119434,8.875943,20231017_132253_902
562,0.6227051,4.138594,8.8951025,20231017_132253_904
563,0.5364844,4.061953,8.899893,20231017_132253_907
564,0.5843848,4.1050634,8.943004,20231017_132253_909
565,0.5843848,4.023633,8.947793,20231017_132253_912
566,0.63707525,4.0811133,8.981323,20231017_132253_914
567,0.5891748,4.1050634,9.024434,20231017_132253_917
568,0.5460645,4.0571632,9.024434,20231017_132253_919
569,0.5939649,4.0523734,9.010064,20231017_132253_922
570,0.5460645,4.061953,8.947793,20231017_132253_924
571,0.5556446,4.0523734,8.837623,20231017_132253_927
572,0.57001466,4.0667434,8.875943,20231017_132253_930
573,0.5508545,4.047583,8.808882,20231017_132253_932
574,0.57959473,3.9853127,8.914263,20231017_132253_935
575,0.5556446,4.033213,8.928633,20231017_132253_937
576,0.5891748,4.047583,8.943004,20231017_132253_940
577,0.60354495,4.0427933,8.943004,20231017_132253_942
578,0.68018556,4.0859036,8.957374,20231017_132253_945
579,0.6514453,4.0571632,8.986114,20231017_132253_947
580,0.64186525,4.0667434,8.8951025,20231017_132253_950
581,0.63707525,4.0859036,8.837623,20231017_132253_953
582,0.6466553,4.1146436,8.885523,20231017_132253_955
583,0.5939649,4.0667434,8.828042,20231017_132253_957
584,0.6179151,4.0859036,8.866363,20231017_132253_960
585,0.62749517,4.0523734,8.804092,20231017_132253_962
586,0.5843848,4.0859036,8.880733,20231017_132253_965
587,0.57001466,4.133804,8.856783,20231017_132253_968
588,0.5460645,4.1242237,8.765772,20231017_132253_970
589,0.5412744,4.148174,8.904683,20231017_132253_973
590,0.57001466,4.129014,8.938213,20231017_132253_975
591,0.6227051,4.1098537,8.880733,20231017_132253_978
592,0.5843848,4.1146436,8.885523,20231017_132253_980
593,0.6179151,4.1050634,8.962164,20231017_132253_983
594,0.6179151,4.176914,8.928633,20231017_132253_985
595,0.6179151,4.0859036,8.943004,20231017_132253_988
596,0.57959473,4.129014,8.976534,20231017_132253_991
597,0.64186525,4.143384,9.034014,20231017_132253_993
598,0.60833496,4.129014,8.966953,20231017_132253_996
599,0.6179151,4.138594,9.062755,20231017_132253_998
600,0.5939649,4.061953,8.995694,20231017_132254_001
601,0.5891748,4.143384,9.024434,20231017_132254_003
602,0.5748047,4.095484,9.0148535,20231017_132254_006
603,0.64186525,4.0667434,8.933423,20231017_132254_008
604,0.64186525,4.157754,8.943004,20231017_132254_011
605,0.63707525,4.1050634,8.875943,20231017_132254_014
606,0.6706055,4.1146436,8.914263,20231017_132254_016
607,0.71371585,4.0906935,8.794512,20231017_132254_019
608,0.6993457,4.0906935,8.856783,20231017_132254_021
609,0.6706055,4.129014,8.866363,20231017_132254_024
610,0.64186525,4.061953,8.823253,20231017_132254_029
611,0.6322852,4.1146436,8.861572,20231017_132254_030
612,0.6179151,4.1098537,8.780142,20231017_132254_032
613,0.62749517,4.0427933,8.770562,20231017_132254_034
614,0.6179151,4.061953,8.737032,20231017_132254_038
615,0.6227051,4.0811133,8.746612,20231017_132254_039
616,0.64186525,4.0571632,8.794512,20231017_132254_042
617,0.5891748,4.038003,8.837623,20231017_132254_044
618,0.6466553,4.095484,8.899893,20231017_132254_047
619,0.6610254,4.1098537,8.837623,20231017_132254_050
620,0.63707525,4.071533,8.847202,20231017_132254_052
621,0.6562354,4.023633,8.784932,20231017_132254_054
622,0.64186525,4.018843,8.890313,20231017_132254_057
623,0.6322852,4.0859036,8.871153,20231017_132254_059
624,0.6466553,4.1002736,8.904683,20231017_132254_062
625,0.5891748,4.1002736,8.8951025,20231017_132254_064
626,0.62749517,4.047583,8.971744,20231017_132254_067
627,0.5987549,4.061953,8.904683,20231017_132254_069
628,0.5556446,4.0523734,8.904683,20231017_132254_072
629,0.57001466,4.028423,8.947793,20231017_132254_075
630,0.5987549,4.0811133,8.899893,20231017_132254_077
631,0.51732427,4.0667434,8.928633,20231017_132254_079
632,0.5508545,4.061953,8.880733,20231017_132254_082
633,0.53169435,4.047583,8.909473,20231017_132254_084
634,0.6227051,4.047583,8.861572,20231017_132254_087
635,0.57001466,4.0906935,8.914263,20231017_132254_090
636,0.5748047,3.999683,8.909473,20231017_132254_092
637,0.5508545,4.018843,8.909473,20231017_132254_095
638,0.5987549,4.0523734,8.928633,20231017_132254_097
639,0.5604346,4.038003,8.943004,20231017_132254_100
640,0.60354495,4.0427933,8.909473,20231017_132254_102
641,0.62749517,4.047583,8.938213,20231017_132254_105
642,0.5939649,4.028423,8.952583,20231017_132254_108
643,0.57001466,4.0044727,8.986114,20231017_132254_110
644,0.5843848,4.0811133,8.976534,20231017_132254_113
645,0.6322852,4.0044727,9.0004835,20231017_132254_115
646,0.5891748,4.0523734,9.0148535,20231017_132254_118
647,0.56522465,4.038003,9.053174,20231017_132254_120
648,0.60354495,4.0571632,8.990904,20231017_132254_123
649,0.5843848,4.0523734,8.919053,20231017_132254_125
650,0.5987549,4.0906935,8.890313,20231017_132254_128
651,0.5364844,4.033213,8.914263,20231017_132254_131
652,0.5029541,4.0427933,8.885523,20231017_132254_133
653,0.5460645,4.0811133,8.885523,20231017_132254_136
654,0.5748047,4.129014,8.976534,20231017_132254_138
655,0.5460645,4.0044727,8.995694,20231017_132254_141
656,0.51732427,4.061953,9.005274,20231017_132254_144
657,0.5412744,4.0667434,9.005274,20231017_132254_146
658,0.5939649,4.1050634,8.962164,20231017_132254_149
659,0.5125342,4.071533,9.057964,20231017_132254_151
660,0.5364844,4.0811133,8.952583,20231017_132254_154
661,0.5843848,4.0906935,9.029224,20231017_132254_156
662,0.51732427,4.071533,8.904683,20231017_132254_159
663,0.5604346,4.0906935,9.053174,20231017_132254_161
664,0.62749517,4.119434,9.053174,20231017_132254_164
665,0.64186525,4.138594,8.995694,20231017_132254_166
666,0.613125,4.047583,9.034014,20231017_132254_169
667,0.5604346,4.095484,8.919053,20231017_132254_171
668,0.57001466,4.0906935,8.875943,20231017_132254_174
669,0.5221143,4.1098537,8.880733,20231017_132254_176
670,0.5029541,4.1002736,8.842413,20231017_132254_179
671,0.50774413,4.129014,8.813672,20231017_132254_181
672,0.63707525,4.0763235,8.813672,20231017_132254_184
673,0.5556446,4.0763235,8.818462,20231017_132254_187
674,0.6322852,4.1002736,8.770562,20231017_132254_189
675,0.6227051,4.0906935,8.828042,20231017_132254_192
676,0.6706055,4.0763235,8.842413,20231017_132254_194
677,0.6466553,4.0859036,8.722662,20231017_132254_197
678,0.5843848,4.0906935,8.760982,20231017_132254_199
679,0.5987549,4.0044727,8.799302,20231017_132254_201
680,0.5364844,4.023633,8.784932,20231017_132254_204
681,0.53169435,4.0523734,8.823253,20231017_132254_206
682,0.5029541,3.9948928,8.842413,20231017_132254_209
683,0.4981641,4.023633,8.914263,20231017_132254_212
684,0.52690434,4.061953,8.933423,20231017_132254_214
685,0.5412744,3.9517825,8.866363,20231017_132254_217
686,0.5460645,4.038003,8.966953,20231017_132254_220
687,0.5604346,4.033213,8.952583,20231017_132254_222
688,0.64186525,4.028423,8.981323,20231017_132254_224
689,0.6658155,4.148174,9.024434,20231017_132254_227
690,0.5987549,4.014053,8.986114,20231017_132254_230
691,0.6227051,4.0571632,9.019644,20231017_132254_232
692,0.51732427,4.009263,9.019644,20231017_132254_234
693,0.56522465,3.9948928,9.057964,20231017_132254_237
694,0.48379397,3.999683,9.086704,20231017_132254_240
695,0.5508545,4.033213,9.048384,20231017_132254_241
696,0.52690434,4.1002736,9.0004835,20231017_132254_245
697,0.5748047,4.028423,8.957374,20231017_132254_247
698,0.5604346,4.047583,8.986114,20231017_132254_251
699,0.57001466,4.023633,8.986114,20231017_132254_253
700,0.57959473,4.0906935,8.890313,20231017_132254_255
701,0.57959473,4.071533,8.904683,20231017_132254_258
702,0.56522465,4.1098537,8.928633,20231017_132254_260
703,0.52690434,4.0906935,8.952583,20231017_132254_262
704,0.6227051,4.1050634,8.871153,20231017_132254_266
705,0.5412744,4.143384,8.8951025,20231017_132254_268
706,0.51732427,4.1098537,8.847202,20231017_132254_270
707,0.56522465,4.133804,8.952583,20231017_132254_273
708,0.5460645,4.181704,8.880733,20231017_132254_275
709,0.5604346,4.1625443,8.837623,20231017_132254_278
710,0.5748047,4.2152348,8.780142,20231017_132254_280
711,0.53169435,4.2056546,8.804092,20231017_132254_283
712,0.49337405,4.0906935,8.741821,20231017_132254_286
713,0.5029541,4.0763235,8.708291,20231017_132254_288
714,0.5029541,4.028423,8.660391,20231017_132254_291
715,0.4981641,3.9661524,8.799302,20231017_132254_293
716,0.5125342,3.9613624,8.861572,20231017_132254_296
717,0.5748047,3.9757326,8.828042,20231017_132254_299
718,0.5843848,3.8559816,8.933423,20231017_132254_300
719,0.5939649,3.8176613,9.034014,20231017_132254_302
720,0.57001466,3.8176613,9.029224,20231017_132254_305
721,0.56522465,3.9134622,9.101074,20231017_132254_308
722,0.51732427,3.9374123,9.081915,20231017_132254_310
723,0.5748047,3.9613624,9.053174,20231017_132254_313
724,0.5221143,3.9326222,9.0004835,20231017_132254_315
725,0.57959473,3.9422023,9.038804,20231017_132254_318
726,0.60354495,3.9709425,8.986114,20231017_132254_320
727,0.5556446,3.9182522,8.899893,20231017_132254_322
728,0.5604346,3.9948928,8.890313,20231017_132254_325
729,0.5987549,4.0906935,8.952583,20231017_132254_328
730,0.6562354,4.191284,8.880733,20231017_132254_331
731,0.6514453,4.2296047,8.880733,20231017_132254_333
732,0.6993457,4.3062453,8.842413,20231017_132254_335
733,0.6322852,4.2056546,8.885523,20231017_132254_338
734,0.5748047,4.152964,8.765772,20231017_132254_340
735,0.57959473,4.1721244,8.837623,20231017_132254_344
736,0.5748047,4.133804,8.784932,20231017_132254_346
737,0.60354495,4.0859036,8.717872,20231017_132254_349
738,0.5987549,4.1098537,8.760982,20231017_132254_351
739,0.5460645,4.018843,8.689131,20231017_132254_354
740,0.53169435,3.9709425,8.770562,20231017_132254_357
741,0.5412744,3.9517825,8.832832,20231017_132254_359
742,0.5556446,3.9374123,8.808882,20231017_132254_361
743,0.5508545,3.9805226,8.919053,20231017_132254_364
744,0.5460645,3.999683,8.8951025,20231017_132254_366
745,0.51732427,3.9517825,8.962164,20231017_132254_369
746,0.53169435,3.9469924,8.957374,20231017_132254_371
747,0.5987549,3.9757326,8.966953,20231017_132254_374
748,0.6466553,3.9901028,8.981323,20231017_132254_377
749,0.63707525,3.9422023,8.923843,20231017_132254_381
750,0.5748047,4.009263,9.034014,20231017_132254_383
751,0.5748047,3.9661524,8.8951025,20231017_132254_384
752,0.5987549,3.9948928,8.938213,20231017_132254_387
753,0.5891748,3.8655617,8.899893,20231017_132254_390
754,0.5364844,3.9374123,8.914263,20231017_132254_392
755,0.63707525,3.908672,8.890313,20231017_132254_395
756,0.5556446,3.9326222,8.914263,20231017_132254_397
757,0.5556446,4.0427933,8.962164,20231017_132254_399
758,0.50774413,4.0571632,8.8951025,20231017_132254_402
759,0.4981641,4.0427933,8.794512,20231017_132254_404
760,0.45026368,4.061953,8.851993,20231017_132254_407
761,0.488584,4.071533,8.770562,20231017_132254_409
762,0.5364844,4.061953,8.832832,20231017_132254_412
763,0.51732427,4.1721244,8.799302,20231017_132254_414
764,0.5460645,4.133804,8.804092,20231017_132254_417
765,0.4981641,4.1146436,8.861572,20231017_132254_419
766,0.48379397,4.0906935,8.928633,20231017_132254_422
767,0.5125342,4.138594,8.842413,20231017_132254_424
768,0.5604346,4.061953,8.842413,20231017_132254_427
769,0.52690434,4.0763235,8.899893,20231017_132254_430
770,0.51732427,4.133804,8.890313,20231017_132254_432
771,0.4981641,4.129014,8.875943,20231017_132254_435
772,0.5604346,4.0763235,8.990904,20231017_132254_437
773,0.57001466,4.1242237,8.986114,20231017_132254_440
774,0.5460645,4.0523734,9.0148535,20231017_132254_442
775,0.5125342,4.061953,8.957374,20231017_132254_445
776,0.5221143,4.047583,9.024434,20231017_132254_447
777,0.5412744,4.095484,9.0004835,20231017_132254_450
778,0.5364844,4.0427933,9.005274,20231017_132254_453
779,0.5221143,3.999683,8.909473,20231017_132254_455
780,0.5556446,3.9565725,8.957374,20231017_132254_458
781,0.5508545,4.0667434,8.966953,20231017_132254_461
782,0.5556446,4.0811133,8.995694,20231017_132254_463
783,0.52690434,4.014053,8.981323,20231017_132254_465
784,0.5604346,4.014053,9.010064,20231017_132254_468
785,0.5412744,4.071533,9.010064,20231017_132254_470
786,0.5843848,4.061953,9.019644,20231017_132254_473
787,0.6179151,4.014053,9.053174,20231017_132254_475
788,0.53169435,4.014053,9.005274,20231017_132254_478
789,0.613125,4.047583,8.995694,20231017_132254_481
790,0.5843848,4.028423,8.966953,20231017_132254_483
791,0.60354495,4.014053,8.938213,20231017_132254_485
792,0.60833496,4.028423,9.0004835,20231017_132254_488
793,0.63707525,4.1098537,8.966953,20231017_132254_491
794,0.613125,3.9661524,9.019644,20231017_132254_494
795,0.6658155,4.0859036,9.024434,20231017_132254_496
796,0.68018556,4.028423,9.096285,20231017_132254_499
797,0.68976563,3.9853127,9.010064,20231017_132254_501
798,0.6849756,4.0906935,8.981323,20231017_132254_504
799,0.6227051,4.1098537,8.919053,20231017_132254_507
800,0.6658155,4.0811133,8.914263,20231017_132254_509
801,0.6179151,4.071533,8.813672,20231017_132254_511
802,0.5939649,4.119434,8.851993,20231017_132254_515
803,0.62749517,4.028423,8.832832,20231017_132254_517
804,0.60354495,4.028423,8.737032,20231017_132254_520
805,0.57959473,4.0523734,8.784932,20231017_132254_521
806,0.6179151,4.028423,8.818462,20231017_132254_524
807,0.5460645,4.0763235,8.818462,20231017_132254_530
808,0.63707525,4.071533,8.875943,20231017_132254_531
809,0.5939649,4.1050634,8.943004,20231017_132254_532
810,0.5939649,4.119434,8.804092,20231017_132254_535
811,0.5939649,4.0811133,8.760982,20231017_132254_537
812,0.5604346,4.038003,8.832832,20231017_132254_541
813,0.60833496,3.9901028,8.775352,20231017_132254_542
814,0.5604346,3.9709425,8.842413,20231017_132254_545
815,0.6227051,4.009263,8.784932,20231017_132254_549
816,0.5987549,4.009263,8.856783,20231017_132254_549
817,0.56522465,4.0906935,8.784932,20231017_132254_552
818,0.5939649,4.0763235,8.818462,20231017_132254_554
819,0.57959473,4.0763235,8.756192,20231017_132254_557
820,0.5508545,4.047583,8.775352,20231017_132254_559
821,0.57001466,4.033213,8.832832,20231017_132254_561
822,0.52690434,4.0763235,8.794512,20231017_132254_565
823,0.488584,4.0044727,8.813672,20231017_132254_567
824,0.5221143,4.119434,8.875943,20231017_132254_570
825,0.60833496,4.023633,8.866363,20231017_132254_572
826,0.5748047,4.0667434,8.923843,20231017_132254_574
827,0.56522465,4.095484,8.914263,20231017_132254_577
828,0.5364844,4.0906935,8.966953,20231017_132254_579
829,0.4742139,4.272715,8.966953,20231017_132254_581
830,0.51732427,4.167334,9.0148535,20231017_132254_584
831,0.5412744,4.152964,9.0004835,20231017_132254_586
832,0.5029541,4.1098537,8.986114,20231017_132254_589
833,0.488584,4.1002736,9.005274,20231017_132254_592
834,0.5364844,4.038003,9.034014,20231017_132254_594
835,0.5221143,4.0859036,9.019644,20231017_132254_597
836,0.5412744,4.095484,8.962164,20231017_132254_599
837,0.5029541,4.038003,8.986114,20231017_132254_602
838,0.5412744,4.0523734,9.034014,20231017_132254_604
839,0.51732427,3.9661524,9.005274,20231017_132254_607
840,0.5364844,4.038003,9.0148535,20231017_132254_610
841,0.49337405,3.9613624,8.943004,20231017_132254_612
842,0.5556446,3.9853127,8.966953,20231017_132254_615
843,0.5843848,3.9661524,8.943004,20231017_132254_618
844,0.50774413,3.9469924,8.885523,20231017_132254_620
845,0.52690434,3.9422023,8.971744,20231017_132254_623
846,0.5604346,3.9565725,9.019644,20231017_132254_625
847,0.5843848,3.9853127,8.947793,20231017_132254_628
848,0.53169435,3.9326222,8.971744,20231017_132254_630
849,0.5221143,4.009263,8.981323,20231017_132254_632
850,0.5029541,4.047583,8.976534,20231017_132254_635
851,0.46942386,4.028423,8.952583,20231017_132254_638
852,0.5364844,3.9948928,8.851993,20231017_132254_640
853,0.5604346,3.999683,8.923843,20231017_132254_643
854,0.5460645,4.009263,8.880733,20231017_132254_645
855,0.5987549,4.0044727,8.799302,20231017_132254_648
856,0.5843848,4.0763235,8.919053,20231017_132254_650
857,0.56522465,4.038003,8.8951025,20231017_132254_653
858,0.6179151,4.023633,8.828042,20231017_132254_656
859,0.5508545,4.061953,8.866363,20231017_132254_658
860,0.5939649,4.0906935,8.871153,20231017_132254_660
861,0.5460645,4.0044727,8.957374,20231017_132254_663
862,0.5364844,4.061953,8.919053,20231017_132254_667
863,0.51732427,4.0906935,8.871153,20231017_132254_670
864,0.5556446,4.0811133,8.962164,20231017_132254_671
865,0.5125342,4.0859036,8.899893,20231017_132254_673
866,0.50774413,4.0859036,8.904683,20231017_132254_675
867,0.5556446,4.0859036,8.832832,20231017_132254_678
868,0.5412744,4.0811133,8.890313,20231017_132254_681
869,0.5748047,4.0906935,8.890313,20231017_132254_684
870,0.57959473,4.0571632,8.875943,20231017_132254_688
871,0.56522465,4.1050634,8.847202,20231017_132254_689
872,0.5604346,4.0906935,8.885523,20231017_132254_691
873,0.5029541,4.1050634,8.933423,20231017_132254_693
874,0.488584,4.033213,8.899893,20231017_132254_696
875,0.50774413,4.1050634,8.909473,20231017_132254_698
876,0.4981641,4.023633,8.904683,20231017_132254_700
877,0.4981641,4.0571632,8.928633,20231017_132254_703
878,0.5364844,4.014053,8.899893,20231017_132254_705
879,0.57959473,3.9757326,8.947793,20231017_132254_708
880,0.5508545,4.009263,9.029224,20231017_132254_711
881,0.5987549,4.071533,8.933423,20231017_132254_713
882,0.5843848,4.0523734,8.875943,20231017_132254_716
883,0.613125,4.038003,8.976534,20231017_132254_718
884,0.57001466,3.9709425,8.904683,20231017_132254_721
885,0.5987549,4.014053,8.8951025,20231017_132254_723
886,0.5412744,4.014053,8.938213,20231017_132254_726
887,0.5460645,3.999683,8.813672,20231017_132254_728
888,0.56522465,4.028423,8.890313,20231017_132254_731
889,0.5748047,4.071533,8.871153,20231017_132254_734
890,0.64186525,4.028423,8.904683,20231017_132254_736
891,0.56522465,4.023633,8.828042,20231017_132254_738
892,0.57001466,4.1002736,8.981323,20231017_132254_741
893,0.5604346,4.0906935,8.904683,20231017_132254_744
894,0.5460645,4.119434,8.904683,20231017_132254_746
895,0.5364844,4.1050634,8.933423,20231017_132254_749
896,0.5556446,4.157754,8.923843,20231017_132254_751
897,0.53169435,4.023633,8.943004,20231017_132254_754
898,0.45505372,4.1098537,8.947793,20231017_132254_756
899,0.57001466,4.0667434,8.899893,20231017_132254_759
900,0.56522465,4.061953,8.880733,20231017_132254_762
901,0.49337405,4.018843,8.966953,20231017_132254_764
902,0.5556446,4.0571632,8.947793,20231017_132254_767
903,0.5556446,4.038003,8.990904,20231017_132254_770
904,0.5748047,3.999683,8.909473,20231017_132254_773
905,0.53169435,3.9805226,9.0004835,20231017_132254_775
906,0.47900394,4.1050634,8.986114,20231017_132254_777
907,0.5029541,3.9709425,9.0004835,20231017_132254_779
908,0.48379397,3.9278321,9.034014,20231017_132254_782
909,0.45505372,3.9948928,8.986114,20231017_132254_784
910,0.46463382,4.0523734,9.034014,20231017_132254_787
911,0.43589357,4.033213,8.962164,20231017_132254_790
912,0.53169435,3.9422023,9.034014,20231017_132254_792
913,0.5221143,4.038003,8.962164,20231017_132254_795
914,0.5125342,3.903882,9.034014,20231017_132254_797
915,0.52690434,3.9517825,8.981323,20231017_132254_800
916,0.5604346,3.9709425,8.995694,20231017_132254_802
917,0.57001466,3.999683,8.986114,20231017_132254_805
918,0.5125342,4.0523734,9.038804,20231017_132254_807
919,0.5556446,4.0571632,8.981323,20231017_132254_810
920,0.4981641,4.0427933,8.919053,20231017_132254_813
921,0.5412744,4.152964,8.952583,20231017_132254_815
922,0.53169435,4.0427933,8.890313,20231017_132254_818
923,0.5508545,4.071533,8.861572,20231017_132254_820
924,0.57959473,4.1002736,8.875943,20231017_132254_823
925,0.5891748,4.119434,8.775352,20231017_132254_825
926,0.5891748,4.0763235,8.765772,20231017_132254_828
927,0.5939649,4.047583,8.784932,20231017_132254_831
928,0.5891748,4.0763235,8.871153,20231017_132254_833
929,0.62749517,4.038003,8.756192,20231017_132254_836
930,0.5364844,4.0044727,8.851993,20231017_132254_838
931,0.5891748,4.071533,8.828042,20231017_132254_841
932,0.5604346,4.038003,8.871153,20231017_132254_843
933,0.57959473,4.0427933,8.890313,20231017_132254_847
934,0.60833496,4.071533,8.8951025,20231017_132254_849
935,0.56522465,3.9469924,8.861572,20231017_132254_851
936,0.57001466,4.0523734,8.914263,20231017_132254_854
937,0.5891748,4.009263,8.871153,20231017_132254_857
938,0.5748047,3.999683,8.847202,20231017_132254_858
939,0.5891748,4.071533,8.837623,20231017_132254_861
940,0.5987549,4.0427933,8.885523,20231017_132254_864
941,0.62749517,4.061953,8.837623,20231017_132254_871
942,0.6179151,4.009263,8.899893,20231017_132254_871
943,0.5987549,4.0859036,8.885523,20231017_132254_872
944,0.6658155,4.0427933,8.909473,20231017_132254_874
945,0.62749517,4.0906935,8.885523,20231017_132254_876
946,0.67539555,4.1002736,8.847202,20231017_132254_879
947,0.6466553,4.0427933,8.837623,20231017_132254_881
948,0.6610254,4.0763235,8.808882,20231017_132254_884
949,0.6849756,4.061953,8.890313,20231017_132254_886
950,0.6227051,3.9661524,8.851993,20231017_132254_889
951,0.5748047,4.0811133,8.842413,20231017_132254_891
952,0.57001466,4.009263,8.818462,20231017_132254_899
953,0.57959473,4.0427933,8.871153,20231017_132254_900
954,0.613125,4.0427933,8.851993,20231017_132254_900
955,0.5939649,4.0763235,8.832832,20231017_132254_902
956,0.5748047,4.0427933,8.837623,20231017_132254_904
957,0.62749517,4.0523734,8.909473,20231017_132254_907
958,0.60354495,4.018843,8.804092,20231017_132254_909
959,0.57959473,4.0667434,8.914263,20231017_132254_912
960,0.56522465,4.0427933,8.890313,20231017_132254_914
961,0.60833496,4.028423,8.938213,20231017_132254_917
962,0.5987549,4.0811133,8.856783,20231017_132254_919
963,0.6227051,4.047583,8.837623,20231017_132254_922
964,0.5891748,4.009263,8.871153,20231017_132254_928
965,0.5412744,4.0523734,8.919053,20231017_132254_928
966,0.5364844,4.047583,8.919053,20231017_132254_929
967,0.5556446,3.999683,8.880733,20231017_132254_932
968,0.6179151,4.0906935,8.904683,20231017_132254_934
969,0.62749517,4.028423,8.981323,20231017_132254_937
970,0.5460645,4.0667434,8.995694,20231017_132254_939
971,0.5843848,4.018843,8.971744,20231017_132254_942
972,0.60833496,4.071533,8.986114,20231017_132254_945
973,0.63707525,4.071533,9.062755,20231017_132254_947
974,0.6562354,4.0859036,9.110655,20231017_132254_949
975,0.5939649,4.033213,8.962164,20231017_132254_956
976,0.60833496,4.061953,8.966953,20231017_132254_957
977,0.6466553,4.014053,8.971744,20231017_132254_957
978,0.6610254,4.047583,8.933423,20231017_132254_959
979,0.6610254,4.0667434,9.019644,20231017_132254_962
980,0.67539555,4.0667434,8.962164,20231017_132254_965
981,0.62749517,4.061953,9.034014,20231017_132254_967
982,0.6322852,4.0044727,9.043594,20231017_132254_970
983,0.6993457,4.023633,9.043594,20231017_132254_973
984,0.6179151,4.061953,9.062755,20231017_132254_976
985,0.56522465,3.9469924,9.029224,20231017_132254_978
986,0.57959473,3.9709425,9.019644,20231017_132254_980
987,0.5508545,3.9805226,8.966953,20231017_132254_987
988,0.613125,3.9134622,8.933423,20231017_132254_987
989,0.6227051,3.9853127,8.957374,20231017_132254_988
990,0.6179151,4.0667434,8.928633,20231017_132254_990
991,0.6322852,3.9613624,9.005274,20231017_132254_992
992,0.6658155,4.014053,9.024434,20231017_132254_995
993,0.67539555,4.071533,8.971744,20231017_132254_998
994,0.6562354,4.1050634,8.952583,20231017_132255_000
995,0.6322852,3.999683,8.966953,20231017_132255_003
996,0.6706055,4.1098537,9.010064,20231017_132255_005
997,0.6466553,4.0859036,8.943004,20231017_132255_008
998,0.6227051,4.1864944,8.914263,20231017_132255_010
999,0.6706055,4.138594,8.919053,20231017_132255_018
1000,0.6514453,4.191284,8.909473,20231017_132255_019
1001,0.5939649,4.1625443,8.890313,20231017_132255_020
1002,0.56522465,4.119434,8.832832,20231017_132255_021
1003,0.5604346,4.0906935,8.842413,20231017_132255_023
1004,0.56522465,4.0763235,8.885523,20231017_132255_029
1005,0.5221143,3.9613624,8.808882,20231017_132255_030
1006,0.48379397,4.0523734,8.875943,20231017_132255_031
1007,0.45984375,3.894302,8.914263,20231017_132255_034
1008,0.46463382,3.9326222,8.880733,20231017_132255_036
1009,0.51732427,3.8224514,8.885523,20231017_132255_038
1010,0.47900394,3.8607717,8.943004,20231017_132255_041
1011,0.5891748,3.8224514,9.077125,20231017_132255_048
1012,0.57001466,3.8655617,9.034014,20231017_132255_049
1013,0.5412744,3.9517825,9.024434,20231017_132255_050
1014,0.57959473,3.9805226,9.048384,20231017_132255_051
1015,0.5556446,4.018843,9.0004835,20231017_132255_053
1016,0.5748047,3.9853127,8.923843,20231017_132255_056
1017,0.63707525,4.009263,8.971744,20231017_132255_058
1018,0.62749517,3.9853127,8.880733,20231017_132255_061
1019,0.5987549,3.9182522,8.847202,20231017_132255_063
1020,0.64186525,3.9948928,8.851993,20231017_132255_066
1021,0.56522465,4.138594,8.851993,20231017_132255_069
1022,0.6227051,4.3206153,8.875943,20231017_132255_071
1023,0.60833496,4.3062453,8.813672,20231017_132255_079
1024,0.67539555,4.277505,8.780142,20231017_132255_079
1025,0.732876,4.2343946,8.732242,20231017_132255_079
1026,0.7089258,4.1242237,8.732242,20231017_132255_081
1027,0.71371585,4.133804,8.669971,20231017_132255_083
1028,0.7041358,4.1864944,8.717872,20231017_132255_086
1029,0.64186525,4.152964,8.650811,20231017_132255_088
1030,0.71371585,4.023633,8.746612,20231017_132255_091
1031,0.7185059,4.009263,8.737032,20231017_132255_093
1032,0.5987549,3.9278321,8.775352,20231017_132255_097
1033,0.57959473,3.9469924,8.875943,20231017_132255_099
1034,0.5508545,3.9948928,8.847202,20231017_132255_101
1035,0.6179151,3.9182522,8.938213,20231017_132255_110
1036,0.63707525,3.8799317,8.957374,20231017_132255_111
1037,0.62749517,3.9374123,8.986114,20231017_132255_111
1038,0.57001466,3.9422023,8.971744,20231017_132255_112
1039,0.6466553,3.899092,9.024434,20231017_132255_114
1040,0.6849756,3.9278321,8.938213,20231017_132255_116
1041,0.6945557,4.018843,9.038804,20231017_132255_119
1042,0.63707525,4.023633,9.0148535,20231017_132255_121
1043,0.6466553,3.9422023,9.019644,20231017_132255_124
1044,0.613125,3.9901028,8.986114,20231017_132255_127
1045,0.6658155,3.9374123,9.024434,20231017_132255_129
1046,0.62749517,3.9374123,8.995694,20231017_132255_132
1047,0.6227051,3.9805226,8.933423,20231017_132255_140
1048,0.5891748,3.9709425,8.856783,20231017_132255_142
1049,0.5364844,3.9948928,8.919053,20231017_132255_142
1050,0.5556446,4.018843,8.875943,20231017_132255_143
1051,0.47900394,4.014053,8.756192,20231017_132255_145
1052,0.47900394,4.038003,8.871153,20231017_132255_146
1053,0.46942386,4.1002736,8.775352,20231017_132255_151
1054,0.5029541,4.095484,8.775352,20231017_132255_152
1055,0.5364844,4.133804,8.804092,20231017_132255_155
1056,0.53169435,4.129014,8.746612,20231017_132255_157
1057,0.5460645,4.152964,8.789722,20231017_132255_160
1058,0.5843848,4.0811133,8.770562,20231017_132255_162
1059,0.5460645,4.148174,8.842413,20231017_132255_171
1060,0.6706055,4.1242237,8.842413,20231017_132255_173
1061,0.5987549,4.148174,8.847202,20231017_132255_174
1062,0.56522465,4.1098537,8.832832,20231017_132255_175
1063,0.5460645,4.167334,8.871153,20231017_132255_175
1064,0.53169435,4.1002736,8.923843,20231017_132255_178
1065,0.57001466,4.143384,8.914263,20231017_132255_180
1066,0.57001466,4.152964,8.875943,20231017_132255_183
1067,0.60833496,4.1098537,8.885523,20231017_132255_187
1068,0.47900394,4.038003,8.914263,20231017_132255_189
1069,0.50774413,4.0859036,8.952583,20231017_132255_190
1070,0.57001466,4.071533,8.880733,20231017_132255_194
1071,0.57959473,4.047583,8.890313,20231017_132255_196
1072,0.6466553,4.0044727,8.890313,20231017_132255_203
1073,0.5364844,4.033213,8.962164,20231017_132255_204
1074,0.5939649,4.014053,8.981323,20231017_132255_205
1075,0.613125,3.9853127,8.928633,20231017_132255_207
1076,0.5987549,3.9853127,9.034014,20231017_132255_208
1077,0.7376661,3.9565725,8.976534,20231017_132255_210
1078,0.7041358,3.9709425,9.0148535,20231017_132255_214
1079,0.68976563,3.9948928,9.0148535,20231017_132255_216
1080,0.6993457,3.9805226,9.086704,20231017_132255_219
1081,0.71371585,4.0906935,9.105865,20231017_132255_221
1082,0.728086,4.0427933,9.158555,20231017_132255_225
1083,0.67539555,4.033213,9.086704,20231017_132255_227
1084,0.6610254,4.038003,9.043594,20231017_132255_234
1085,0.67539555,4.014053,9.034014,20231017_132255_235
1086,0.6466553,4.047583,8.928633,20231017_132255_236
1087,0.6993457,4.0044727,8.981323,20231017_132255_237
1088,0.6322852,4.071533,8.947793,20231017_132255_239
1089,0.5987549,4.0811133,8.923843,20231017_132255_241
1090,0.5987549,4.047583,8.899893,20231017_132255_244
1091,0.6466553,4.119434,8.914263,20231017_132255_246
1092,0.6945557,4.133804,8.904683,20231017_132255_249
1093,0.63707525,4.023633,8.885523,20231017_132255_251
1094,0.6562354,4.0763235,8.818462,20231017_132255_254
1095,0.5748047,4.1242237,8.909473,20231017_132255_256
1096,0.5843848,4.138594,8.823253,20231017_132255_266
1097,0.5843848,4.095484,8.828042,20231017_132255_267
1098,0.6322852,4.133804,8.818462,20231017_132255_268
1099,0.6322852,4.033213,8.737032,20231017_132255_268
1100,0.6514453,4.071533,8.713081,20231017_132255_269
1101,0.6322852,4.129014,8.727451,20231017_132255_272
1102,0.68018556,4.143384,8.813672,20231017_132255_274
1103,0.68976563,4.0763235,8.799302,20231017_132255_277
1104,0.7041358,4.018843,8.823253,20231017_132255_280
1105,0.68976563,4.023633,8.928633,20231017_132255_282
1106,0.68018556,4.0667434,8.923843,20231017_132255_285
1107,0.68976563,4.0667434,8.851993,20231017_132255_287
1108,0.6562354,4.0667434,8.904683,20231017_132255_289
1109,0.6466553,4.033213,8.990904,20231017_132255_298
1110,0.64186525,4.028423,8.904683,20231017_132255_299
1111,0.67539555,4.0044727,8.962164,20231017_132255_299
1112,0.68018556,3.9469924,9.0004835,20231017_132255_299
1113,0.6514453,4.028423,8.986114,20231017_132255_302
1114,0.6322852,4.0667434,8.952583,20231017_132255_304
1115,0.613125,4.0571632,8.856783,20231017_132255_306
1116,0.5412744,3.9709425,8.933423,20231017_132255_309
1117,0.6179151,4.047583,8.943004,20231017_132255_312
1118,0.57001466,4.0859036,8.928633,20231017_132255_314
1119,0.62749517,4.0906935,8.8951025,20231017_132255_317
1120,0.60833496,4.0811133,8.8951025,20231017_132255_319
1121,0.56522465,4.1242237,8.962164,20231017_132255_321
1122,0.49337405,4.129014,8.928633,20231017_132255_324
1123,0.488584,4.1050634,8.962164,20231017_132255_327
1124,0.5125342,4.0571632,8.966953,20231017_132255_329
1125,0.49337405,4.0667434,8.933423,20231017_132255_332
1126,0.5460645,4.1002736,8.914263,20231017_132255_334
1127,0.52690434,4.119434,8.933423,20231017_132255_337
1128,0.5412744,4.061953,8.890313,20231017_132255_340
1129,0.52690434,4.0906935,9.005274,20231017_132255_342
1130,0.5460645,4.028423,8.899893,20231017_132255_346
1131,0.5221143,3.9613624,9.038804,20231017_132255_348
1132,0.57001466,3.9948928,8.952583,20231017_132255_351
1133,0.5412744,4.0523734,9.043594,20231017_132255_354
1134,0.5412744,4.047583,9.043594,20231017_132255_356
1135,0.5508545,4.0571632,8.909473,20231017_132255_357
1136,0.5604346,4.0859036,8.919053,20231017_132255_360
1137,0.5604346,4.033213,8.914263,20231017_132255_362
1138,0.62749517,4.047583,8.919053,20231017_132255_365
1139,0.6658155,3.9757326,8.943004,20231017_132255_368
1140,0.62749517,3.9853127,8.966953,20231017_132255_370
1141,0.5939649,4.0044727,8.933423,20231017_132255_373
1142,0.62749517,4.0523734,8.928633,20231017_132255_375
1143,0.6227051,3.999683,8.976534,20231017_132255_378
1144,0.6562354,4.018843,8.947793,20231017_132255_381
1145,0.6610254,4.047583,8.871153,20231017_132255_383
1146,0.6514453,4.009263,8.957374,20231017_132255_385
1147,0.6179151,4.0667434,8.861572,20231017_132255_388
1148,0.5748047,4.0667434,8.875943,20231017_132255_390
1149,0.56522465,4.0763235,8.789722,20231017_132255_393
1150,0.63707525,4.061953,8.875943,20231017_132255_395
1151,0.5987549,4.0523734,8.828042,20231017_132255_398
1152,0.5987549,4.028423,8.818462,20231017_132255_401
1153,0.5556446,4.028423,8.823253,20231017_132255_403
1154,0.60833496,4.0811133,8.799302,20231017_132255_405
1155,0.6227051,4.0667434,8.784932,20231017_132255_408
1156,0.6179151,4.038003,8.851993,20231017_132255_410
1157,0.5987549,4.095484,8.770562,20231017_132255_413
1158,0.5939649,4.0523734,8.832832,20231017_132255_415
1159,0.6179151,4.167334,8.856783,20231017_132255_418
1160,0.5987549,4.061953,8.842413,20231017_132255_421
1161,0.5843848,4.0571632,8.875943,20231017_132255_423
1162,0.5843848,4.1098537,8.890313,20231017_132255_426
1163,0.5604346,4.0906935,8.847202,20231017_132255_428
1164,0.5843848,4.0763235,8.808882,20231017_132255_431
1165,0.57959473,4.0859036,8.943004,20231017_132255_433
1166,0.5748047,4.1002736,8.813672,20231017_132255_436
1167,0.5508545,4.138594,8.775352,20231017_132255_438
1168,0.5987549,4.176914,8.741821,20231017_132255_441
1169,0.613125,4.0811133,8.871153,20231017_132255_444
1170,0.7089258,4.129014,8.756192,20231017_132255_446
1171,0.6562354,4.0571632,8.717872,20231017_132255_449
1172,0.613125,4.071533,8.746612,20231017_132255_451
1173,0.67539555,4.0667434,8.760982,20231017_132255_454
1174,0.6514453,4.028423,8.842413,20231017_132255_456
1175,0.6466553,4.061953,8.832832,20231017_132255_459
1176,0.63707525,3.999683,8.866363,20231017_132255_461
1177,0.6227051,4.0763235,8.847202,20231017_132255_464
1178,0.6658155,4.038003,8.899893,20231017_132255_466
1179,0.6706055,3.9901028,8.899893,20231017_132255_469
1180,0.63707525,4.038003,8.947793,20231017_132255_472
1181,0.7089258,4.033213,8.971744,20231017_132255_474
1182,0.6945557,4.061953,9.0004835,20231017_132255_476
1183,0.732876,4.071533,8.947793,20231017_132255_479
1184,0.7089258,4.009263,8.986114,20231017_132255_481
1185,0.6849756,4.1002736,8.923843,20231017_132255_484
1186,0.64186525,4.0763235,8.909473,20231017_132255_487
1187,0.6945557,4.0906935,8.981323,20231017_132255_489
1188,0.6849756,4.0859036,8.943004,20231017_132255_492
1189,0.6849756,4.1002736,8.990904,20231017_132255_494
1190,0.6658155,4.129014,8.928633,20231017_132255_497
1191,0.6514453,4.033213,9.057964,20231017_132255_499
1192,0.6179151,4.018843,9.038804,20231017_132255_502
1193,0.57959473,4.028423,9.062755,20231017_132255_506
1194,0.5891748,3.9901028,9.086704,20231017_132255_509
1195,0.57001466,4.023633,9.062755,20231017_132255_511
1196,0.5748047,3.9948928,9.053174,20231017_132255_512
1197,0.63707525,4.0044727,9.048384,20231017_132255_514
1198,0.57001466,4.047583,8.990904,20231017_132255_518
1199,0.52690434,4.023633,8.947793,20231017_132255_520
1200,0.488584,3.9422023,8.938213,20231017_132255_523
1201,0.5460645,3.9565725,8.990904,20231017_132255_536
1202,0.5748047,3.9661524,8.952583,20231017_132255_537
1203,0.5891748,3.9901028,8.938213,20231017_132255_538
1204,0.52690434,4.009263,8.962164,20231017_132255_539
1205,0.5843848,4.023633,8.962164,20231017_132255_539
1206,0.56522465,3.923042,8.923843,20231017_132255_540
1207,0.7041358,3.999683,8.976534,20231017_132255_542
1208,0.6514453,4.0571632,9.010064,20231017_132255_544
1209,0.7041358,4.018843,8.909473,20231017_132255_545
1210,0.5412744,4.047583,8.947793,20231017_132255_548
1211,0.5748047,4.028423,8.976534,20231017_132255_551
1212,0.60354495,3.9948928,8.947793,20231017_132255_553
1213,0.613125,4.009263,8.966953,20231017_132255_556
1214,0.63707525,3.9901028,8.928633,20231017_132255_558
1215,0.6179151,4.0571632,8.890313,20231017_132255_560
1216,0.6227051,3.9469924,8.890313,20231017_132255_563
1217,0.6227051,4.0667434,8.990904,20231017_132255_565
1218,0.6466553,3.9469924,8.875943,20231017_132255_568
1219,0.5939649,4.028423,8.842413,20231017_132255_570
1220,0.5987549,4.0523734,8.952583,20231017_132255_573
1221,0.67539555,4.028423,8.938213,20231017_132255_575
1222,0.5508545,3.9853127,8.880733,20231017_132255_578
1223,0.5843848,3.9948928,8.851993,20231017_132255_580
1224,0.6227051,3.999683,8.928633,20231017_132255_582
1225,0.62749517,3.999683,8.957374,20231017_132255_585
1226,0.68018556,4.0523734,8.828042,20231017_132255_588
1227,0.6514453,4.0667434,8.923843,20231017_132255_591
1228,0.5987549,4.038003,8.885523,20231017_132255_593
1229,0.6562354,4.038003,8.933423,20231017_132255_596
1230,0.57001466,4.0763235,8.933423,20231017_132255_598
1231,0.6322852,4.0523734,8.847202,20231017_132255_600
1232,0.64186525,4.0811133,8.784932,20231017_132255_603
1233,0.613125,4.0523734,8.880733,20231017_132255_605
1234,0.6706055,4.0044727,8.828042,20231017_132255_608
1235,0.57001466,3.999683,8.775352,20231017_132255_611
1236,0.6227051,4.0906935,8.890313,20231017_132255_614
1237,0.6706055,4.0427933,8.856783,20231017_132255_616
1238,0.5508545,4.061953,8.904683,20231017_132255_618
1239,0.60833496,4.061953,8.909473,20231017_132255_622
1240,0.64186525,3.999683,8.823253,20231017_132255_624
1241,0.57959473,4.0427933,8.851993,20231017_132255_626
1242,0.60833496,4.119434,8.832832,20231017_132255_629
1243,0.57959473,4.038003,8.904683,20231017_132255_631
1244,0.6227051,4.061953,8.8951025,20231017_132255_634
1245,0.60833496,4.028423,8.952583,20231017_132255_636
1246,0.5508545,4.009263,8.832832,20231017_132255_639
1247,0.60833496,4.0044727,8.842413,20231017_132255_641
1248,0.6227051,4.047583,8.933423,20231017_132255_644
1249,0.6227051,4.009263,8.966953,20231017_132255_646
1250,0.60833496,3.999683,8.976534,20231017_132255_649
1251,0.5939649,4.014053,8.909473,20231017_132255_653
1252,0.6514453,3.9948928,8.938213,20231017_132255_654
1253,0.64186525,4.018843,8.966953,20231017_132255_657
1254,0.6322852,4.0044727,8.971744,20231017_132255_659
1255,0.62749517,3.899092,8.990904,20231017_132255_661
1256,0.6993457,4.038003,9.072334,20231017_132255_664
1257,0.71371585,4.014053,9.038804,20231017_132255_666
1258,0.67539555,4.023633,9.139395,20231017_132255_669
1259,0.6466553,4.038003,9.129815,20231017_132255_671
1260,0.6322852,3.9757326,9.182506,20231017_132255_674
1261,0.6945557,4.0811133,9.081915,20231017_132255_676
1262,0.62749517,4.023633,9.053174,20231017_132255_678
1263,0.60833496,4.028423,9.048384,20231017_132255_681
1264,0.613125,4.0427933,9.057964,20231017_132255_683
1265,0.6322852,4.014053,9.024434,20231017_132255_686
1266,0.62749517,4.023633,9.034014,20231017_132255_689
1267,0.6466553,4.018843,9.062755,20231017_132255_691
1268,0.6179151,4.047583,9.0148535,20231017_132255_694
1269,0.6466553,3.9948928,9.038804,20231017_132255_696
1270,0.5891748,3.9613624,8.957374,20231017_132255_699
1271,0.64186525,3.9709425,8.899893,20231017_132255_701
1272,0.6993457,4.033213,8.8951025,20231017_132255_704
1273,0.6658155,4.038003,8.971744,20231017_132255_707
1274,0.6562354,4.023633,8.962164,20231017_132255_710
1275,0.5891748,4.071533,8.986114,20231017_132255_713
1276,0.63707525,4.095484,8.919053,20231017_132255_715
1277,0.5604346,4.028423,8.914263,20231017_132255_718
1278,0.5748047,4.038003,8.861572,20231017_132255_720
1279,0.5748047,4.061953,8.923843,20231017_132255_722
1280,0.5508545,4.143384,8.871153,20231017_132255_725
1281,0.5604346,4.061953,8.861572,20231017_132255_728
1282,0.62749517,4.0906935,8.851993,20231017_132255_730
1283,0.60354495,4.138594,8.823253,20231017_132255_733
1284,0.5939649,4.133804,8.813672,20231017_132255_735
1285,0.5604346,4.133804,8.813672,20231017_132255_738
1286,0.57959473,4.0811133,8.655601,20231017_132255_741
1287,0.49337405,4.0571632,8.698711,20231017_132255_743
1288,0.5556446,4.061953,8.737032,20231017_132255_746
1289,0.5221143,4.0044727,8.775352,20231017_132255_748
1290,0.50774413,3.9901028,8.818462,20231017_132255_751
1291,0.5460645,3.9278321,8.847202,20231017_132255_754
1292,0.5939649,3.8703518,8.909473,20231017_132255_756
1293,0.6179151,3.8751419,8.976534,20231017_132255_758
1294,0.62749517,3.8128712,9.057964,20231017_132255_761
1295,0.64186525,3.8703518,9.187295,20231017_132255_763
1296,0.60354495,3.923042,9.211246,20231017_132255_766
1297,0.5604346,3.9326222,9.187295,20231017_132255_768
1298,0.57959473,3.8895118,9.091495,20231017_132255_771
1299,0.6227051,3.9374123,9.062755,20231017_132255_773
1300,0.6514453,3.9469924,9.062755,20231017_132255_776
1301,0.6514453,3.9278321,9.034014,20231017_132255_779
1302,0.68018556,3.9182522,9.101074,20231017_132255_781
1303,0.68018556,3.9853127,9.062755,20231017_132255_783
1304,0.7376661,4.191284,9.029224,20231017_132255_785
1305,0.74724615,4.167334,9.010064,20231017_132255_788
1306,0.7185059,4.2439747,9.024434,20231017_132255_791
1307,0.6993457,4.2296047,8.995694,20231017_132255_794
1308,0.7424561,4.0906935,8.938213,20231017_132255_796
1309,0.6993457,4.129014,8.914263,20231017_132255_798
1310,0.7089258,4.152964,9.010064,20231017_132255_801
1311,0.6514453,4.181704,8.799302,20231017_132255_804
1312,0.5556446,4.1625443,8.799302,20231017_132255_807
1313,0.63707525,4.095484,8.770562,20231017_132255_809
1314,0.6179151,4.0523734,8.760982,20231017_132255_811
1315,0.5987549,4.0811133,8.775352,20231017_132255_814
1316,0.5843848,3.9469924,8.751402,20231017_132255_817
1317,0.60833496,3.9853127,8.856783,20231017_132255_819
1318,0.6610254,4.014053,8.861572,20231017_132255_821
1319,0.6179151,3.9469924,8.914263,20231017_132255_824
1320,0.60833496,3.899092,8.933423,20231017_132255_826
1321,0.62749517,3.9469924,9.153765,20231017_132255_829
1322,0.5604346,3.9517825,9.010064,20231017_132255_832
1323,0.57001466,3.9517825,9.057964,20231017_132255_834
1324,0.56522465,3.9853127,9.0004835,20231017_132255_837
1325,0.60833496,3.9374123,9.0004835,20231017_132255_840
1326,0.5604346,3.9901028,8.981323,20231017_132255_842
1327,0.52690434,3.9805226,8.904683,20231017_132255_844
1328,0.5939649,3.9134622,8.890313,20231017_132255_846
1329,0.6322852,3.9948928,8.904683,20231017_132255_849
1330,0.56522465,3.9469924,8.818462,20231017_132255_852
1331,0.5748047,4.009263,8.8951025,20231017_132255_854
1332,0.5604346,4.033213,8.780142,20231017_132255_858
1333,0.5125342,4.0427933,8.799302,20231017_132255_860
1334,0.60354495,4.0811133,8.837623,20231017_132255_862
1335,0.56522465,4.1146436,8.808882,20231017_132255_864
1336,0.60354495,4.014053,8.717872,20231017_132255_867
1337,0.5748047,4.0906935,8.751402,20231017_132255_869
1338,0.5891748,4.0906935,8.722662,20231017_132255_872
1339,0.5748047,4.1242237,8.717872,20231017_132255_875
1340,0.52690434,4.1625443,8.760982,20231017_132255_877
1341,0.53169435,4.157754,8.727451,20231017_132255_880
1342,0.5125342,4.1721244,8.669971,20231017_132255_882
1343,0.5556446,4.138594,8.751402,20231017_132255_884
1344,0.51732427,4.148174,8.847202,20231017_132255_887
1345,0.57001466,4.157754,8.899893,20231017_132255_890
1346,0.50774413,4.129014,8.885523,20231017_132255_892
1347,0.60833496,4.191284,8.904683,20231017_132255_895
1348,0.53169435,4.1242237,8.890313,20231017_132255_900
1349,0.4981641,4.1242237,8.880733,20231017_132255_901
1350,0.53169435,4.1146436,8.885523,20231017_132255_902
1351,0.57959473,4.1050634,8.904683,20231017_132255_907
1352,0.53169435,4.1864944,8.966953,20231017_132255_908
1353,0.5556446,4.0906935,8.856783,20231017_132255_910
1354,0.5364844,4.0571632,8.837623,20231017_132255_912
1355,0.56522465,4.0763235,8.866363,20231017_132255_915
1356,0.60354495,4.0859036,8.871153,20231017_132255_918
1357,0.5891748,4.0906935,8.871153,20231017_132255_920
1358,0.62749517,4.0906935,8.842413,20231017_132255_922
1359,0.5843848,4.0523734,8.909473,20231017_132255_925
1360,0.5748047,4.071533,8.890313,20231017_132255_928
1361,0.6227051,4.0906935,8.8951025,20231017_132255_930
1362,0.56522465,4.0859036,8.947793,20231017_132255_932
1363,0.5939649,4.038003,8.923843,20231017_132255_935
1364,0.6514453,4.0906935,8.847202,20231017_132255_938
1365,0.732876,4.061953,8.866363,20231017_132255_940
1366,0.6658155,4.071533,8.947793,20231017_132255_942
1367,0.68976563,4.0859036,8.832832,20231017_132255_945
1368,0.6706055,4.0859036,8.909473,20231017_132255_948
1369,0.6993457,4.1146436,8.890313,20231017_132255_950
1370,0.7041358,4.148174,8.880733,20231017_132255_953
1371,0.71371585,4.0523734,8.818462,20231017_132255_956
1372,0.732876,4.133804,8.808882,20231017_132255_958
1373,0.68018556,4.1146436,8.919053,20231017_132255_961
1374,0.6514453,4.0859036,8.808882,20231017_132255_963
1375,0.5939649,4.0667434,8.885523,20231017_132255_965
1376,0.64186525,4.0906935,8.890313,20231017_132255_968
1377,0.6227051,4.0906935,8.866363,20231017_132255_971
1378,0.5843848,4.061953,8.813672,20231017_132255_974
1379,0.5987549,4.1050634,8.804092,20231017_132255_976
1380,0.5412744,4.0859036,8.880733,20231017_132255_979
1381,0.5939649,4.0811133,8.885523,20231017_132255_981
1382,0.57959473,4.0859036,8.804092,20231017_132255_983
1383,0.52690434,4.0763235,8.813672,20231017_132255_987
1384,0.60833496,4.071533,8.808882,20231017_132255_989
1385,0.52690434,4.009263,8.856783,20231017_132255_991
1386,0.5460645,4.047583,8.823253,20231017_132255_994
1387,0.5891748,4.0427933,8.943004,20231017_132255_997
1388,0.613125,4.023633,8.890313,20231017_132255_999
1389,0.5748047,4.1002736,8.866363,20231017_132256_002
1390,0.5556446,4.0667434,8.880733,20231017_132256_005
1391,0.5508545,4.095484,8.943004,20231017_132256_008
1392,0.5748047,4.1002736,8.919053,20231017_132256_010
1393,0.5748047,4.0523734,8.899893,20231017_132256_013
1394,0.5604346,4.095484,8.904683,20231017_132256_014
1395,0.60354495,4.0571632,8.909473,20231017_132256_017
1396,0.5987549,4.0427933,8.923843,20231017_132256_019
1397,0.6322852,4.0571632,8.952583,20231017_132256_022
1398,0.6322852,4.028423,8.952583,20231017_132256_024
1399,0.6610254,4.0044727,8.909473,20231017_132256_026
1400,1.2933106,3.9469924,8.58854,20231017_132256_032
1401,0.41194338,4.191284,8.990904,20231017_132256_032
1402,0.34009278,4.272715,9.024434,20231017_132256_034
1403,0.5604346,4.1002736,9.091495,20231017_132256_036
1404,0.6993457,4.0811133,9.129815,20231017_132256_040
1405,0.6562354,4.148174,9.029224,20231017_132256_042
1406,0.63707525,4.1146436,8.971744,20231017_132256_044
1407,0.5221143,4.148174,8.943004,20231017_132256_046
1408,0.56522465,4.0906935,9.0148535,20231017_132256_049
1409,0.5891748,4.071533,8.986114,20231017_132256_052
1410,0.5939649,4.0859036,8.995694,20231017_132256_054
1411,0.5843848,4.1050634,8.885523,20231017_132256_057
1412,0.5556446,4.014053,8.976534,20231017_132256_059
1413,0.5891748,4.095484,9.010064,20231017_132256_062
1414,0.60833496,4.0667434,8.995694,20231017_132256_064
1415,0.5556446,3.9853127,9.0004835,20231017_132256_067
1416,0.5221143,3.9901028,9.0004835,20231017_132256_069
1417,0.50774413,4.023633,9.048384,20231017_132256_072
1418,0.60354495,3.9901028,8.990904,20231017_132256_074
1419,0.5748047,4.0044727,8.995694,20231017_132256_077
1420,0.50774413,4.023633,8.966953,20231017_132256_079
1421,0.4742139,4.028423,9.010064,20231017_132256_082
1422,0.5125342,4.023633,8.995694,20231017_132256_084
1423,0.68018556,3.9805226,8.981323,20231017_132256_087
1424,0.56522465,4.0811133,9.024434,20231017_132256_090
1425,0.6466553,3.9469924,8.923843,20231017_132256_092
1426,0.5604346,4.028423,8.933423,20231017_132256_094
1427,0.5556446,4.0427933,8.971744,20231017_132256_097
1428,0.57959473,4.0523734,8.966953,20231017_132256_099
1429,0.5460645,3.9613624,8.866363,20231017_132256_102
1430,0.6466553,4.0523734,8.875943,20231017_132256_104
1431,0.6179151,4.1242237,8.909473,20231017_132256_107
1432,0.57959473,4.095484,8.909473,20231017_132256_110
1433,0.68018556,4.1098537,8.923843,20231017_132256_112
1434,0.68976563,4.1050634,8.789722,20231017_132256_115
1435,0.6849756,4.095484,8.890313,20231017_132256_117
1436,0.6945557,4.138594,8.780142,20231017_132256_120
1437,0.64186525,4.071533,8.813672,20231017_132256_123
1438,0.6322852,4.0667434,8.875943,20231017_132256_125
1439,0.6322852,4.071533,8.837623,20231017_132256_128
1440,0.6514453,4.0667434,8.851993,20231017_132256_131
1441,0.6179151,4.0906935,8.909473,20231017_132256_133
1442,0.5987549,4.133804,8.8951025,20231017_132256_136
1443,0.6466553,4.033213,8.813672,20231017_132256_138
1444,0.5939649,4.1050634,8.856783,20231017_132256_141
1445,0.68976563,4.1098537,8.875943,20231017_132256_143
1446,0.6610254,4.133804,8.933423,20231017_132256_146
1447,0.6706055,4.071533,8.923843,20231017_132256_149
1448,0.6322852,4.095484,8.875943,20231017_132256_151
1449,0.64186525,4.0667434,8.875943,20231017_132256_154
1450,0.613125,4.119434,8.851993,20231017_132256_156
1451,0.5891748,4.071533,8.813672,20231017_132256_158
1452,0.57001466,4.028423,8.784932,20231017_132256_161
1453,0.5843848,4.0763235,8.832832,20231017_132256_163
1454,0.5891748,4.0523734,8.780142,20231017_132256_166
1455,0.6562354,4.038003,8.765772,20231017_132256_168
1456,0.60833496,4.0523734,8.842413,20231017_132256_171
1457,0.6514453,4.023633,8.957374,20231017_132256_174
1458,0.6322852,4.0859036,8.919053,20231017_132256_176
1459,0.6562354,4.0763235,9.0004835,20231017_132256_179
1460,0.6322852,4.014053,8.919053,20231017_132256_181
1461,0.6514453,4.047583,8.990904,20231017_132256_184
1462,0.60833496,4.0906935,8.842413,20231017_132256_186
1463,0.6706055,4.033213,8.837623,20231017_132256_188
1464,0.53169435,4.023633,8.952583,20231017_132256_191
1465,0.5508545,4.014053,8.861572,20231017_132256_194
1466,0.52690434,4.0667434,8.899893,20231017_132256_196
1467,0.5843848,4.033213,8.943004,20231017_132256_198
1468,0.60833496,4.0667434,8.947793,20231017_132256_201
1469,0.5604346,4.1002736,8.943004,20231017_132256_203
1470,0.6227051,4.0427933,8.909473,20231017_132256_206
1471,0.53169435,4.0811133,9.0004835,20231017_132256_209
1472,0.6179151,4.047583,9.057964,20231017_132256_211
1473,0.56522465,4.0427933,9.062755,20231017_132256_214
1474,0.6610254,4.0427933,8.938213,20231017_132256_216
1475,0.5987549,4.023633,9.019644,20231017_132256_219
1476,0.6322852,4.023633,9.005274,20231017_132256_221
1477,0.5891748,4.023633,9.048384,20231017_132256_224
1478,0.60833496,4.0571632,9.053174,20231017_132256_226
1479,0.5508545,3.9805226,9.086704,20231017_132256_229
1480,0.5460645,3.9709425,9.029224,20231017_132256_232
1481,0.5508545,4.014053,9.038804,20231017_132256_234
1482,0.5556446,4.028423,9.091495,20231017_132256_237
1483,0.5412744,4.0667434,9.0148535,20231017_132256_239
1484,0.57959473,4.0044727,9.010064,20231017_132256_242
1485,0.6322852,4.023633,8.990904,20231017_132256_245
1486,0.5939649,4.0763235,8.986114,20231017_132256_247
1487,0.6179151,4.033213,8.909473,20231017_132256_250
1488,0.5987549,4.018843,8.943004,20231017_132256_252
1489,0.56522465,4.028423,8.914263,20231017_132256_255
1490,0.613125,4.047583,8.957374,20231017_132256_257
1491,0.6562354,4.0667434,8.971744,20231017_132256_260
1492,0.5748047,4.1050634,8.904683,20231017_132256_262
1493,0.56522465,4.0667434,8.904683,20231017_132256_265
1494,0.62749517,4.071533,8.8951025,20231017_132256_267
1495,0.5939649,4.023633,8.847202,20231017_132256_270
1496,0.613125,4.009263,8.851993,20231017_132256_272
1497,0.6466553,4.023633,8.856783,20231017_132256_275
1498,0.64186525,4.014053,8.904683,20231017_132256_277
1499,0.5987549,4.061953,8.957374,20231017_132256_280
1500,0.5891748,4.038003,8.8951025,20231017_132256_282
1501,0.5843848,4.1098537,8.899893,20231017_132256_285
1502,0.60833496,4.0667434,8.952583,20231017_132256_288
1503,0.62749517,4.009263,8.952583,20231017_132256_290
1504,0.60354495,3.9805226,8.875943,20231017_132256_293
1505,0.613125,3.9757326,8.919053,20231017_132256_295
1506,0.5748047,3.9565725,8.919053,20231017_132256_298
1507,0.5221143,4.0667434,8.909473,20231017_132256_300
1508,0.6179151,3.9901028,8.909473,20231017_132256_302
1509,0.5604346,3.9901028,8.957374,20231017_132256_305
1510,0.50774413,4.0044727,8.909473,20231017_132256_308
1511,0.5460645,4.0571632,8.914263,20231017_132256_310
1512,0.5221143,3.999683,8.957374,20231017_132256_313
1513,0.57001466,4.0763235,8.851993,20231017_132256_315
1514,0.52690434,4.0044727,8.885523,20231017_132256_318
1515,0.5508545,4.023633,8.871153,20231017_132256_321
1516,0.53169435,4.028423,8.847202,20231017_132256_323
1517,0.60833496,3.9469924,8.823253,20231017_132256_325
1518,0.5843848,4.033213,8.875943,20231017_132256_328
1519,0.60354495,4.0044727,8.904683,20231017_132256_331
1520,0.56522465,4.033213,8.890313,20231017_132256_334
1521,0.5987549,4.0667434,8.832832,20231017_132256_336
1522,0.68976563,4.061953,8.842413,20231017_132256_339
1523,0.63707525,4.0667434,8.789722,20231017_132256_341
1524,0.68018556,4.0667434,8.799302,20231017_132256_345
1525,0.63707525,4.1050634,8.780142,20231017_132256_347
1526,0.60833496,4.152964,8.765772,20231017_132256_349
1527,0.6227051,4.0906935,8.847202,20231017_132256_352
1528,0.613125,4.071533,8.842413,20231017_132256_354
1529,0.60354495,4.1146436,8.971744,20231017_132256_357
1530,0.5939649,4.038003,8.828042,20231017_132256_360
1531,0.57959473,4.047583,8.851993,20231017_132256_362
1532,0.60354495,4.0571632,8.856783,20231017_132256_364
1533,0.5987549,4.033213,8.928633,20231017_132256_371
1534,0.5891748,4.0811133,8.952583,20231017_132256_373
1535,0.5748047,4.119434,8.899893,20231017_132256_375
1536,0.5891748,4.1098537,8.976534,20231017_132256_376
1537,0.57959473,4.0859036,8.890313,20231017_132256_378
1538,0.60833496,4.0811133,9.005274,20231017_132256_380
1539,0.6227051,4.0859036,9.024434,20231017_132256_382
1540,0.5891748,4.0427933,9.0148535,20231017_132256_388
1541,0.60354495,4.0571632,8.938213,20231017_132256_389
1542,0.5987549,3.9948928,8.933423,20231017_132256_389
1543,0.6322852,4.028423,8.981323,20231017_132256_392
1544,0.5508545,4.0667434,8.904683,20231017_132256_395
1545,0.5748047,4.038003,8.928633,20231017_132256_397
1546,0.5412744,4.0906935,9.0148535,20231017_132256_399
1547,0.5508545,4.0811133,8.856783,20231017_132256_402
1548,0.5556446,4.0427933,8.986114,20231017_132256_404
1549,0.5939649,4.0044727,8.976534,20231017_132256_407
1550,0.5939649,4.047583,9.010064,20231017_132256_409
1551,0.6179151,4.014053,9.072334,20231017_132256_412
1552,0.6322852,4.028423,9.125025,20231017_132256_414
1553,0.60833496,3.9661524,9.024434,20231017_132256_417
1554,0.5939649,4.014053,9.034014,20231017_132256_419
1555,0.613125,4.014053,9.019644,20231017_132256_422
1556,0.6706055,4.014053,9.048384,20231017_132256_424
1557,0.5939649,3.999683,9.010064,20231017_132256_427
1558,0.5939649,4.023633,8.947793,20231017_132256_430
1559,0.6179151,3.9661524,8.981323,20231017_132256_432
1560,0.6322852,4.028423,8.966953,20231017_132256_434
1561,0.6658155,4.009263,8.957374,20231017_132256_437
1562,0.5939649,3.9374123,8.962164,20231017_132256_439
1563,0.6993457,3.9709425,8.947793,20231017_132256_443
1564,0.613125,3.923042,8.933423,20231017_132256_445
1565,0.5412744,3.9422023,8.976534,20231017_132256_447
1566,0.5556446,3.9948928,8.976534,20231017_132256_450
1567,0.5364844,3.9374123,8.890313,20231017_132256_452
1568,0.5412744,4.0427933,8.885523,20231017_132256_455
1569,0.5508545,4.0667434,8.861572,20231017_132256_457
1570,0.5843848,3.9901028,8.952583,20231017_132256_460
1571,0.6227051,4.038003,8.923843,20231017_132256_462
1572,0.613125,4.014053,8.875943,20231017_132256_465
1573,0.6179151,4.0667434,8.875943,20231017_132256_467
1574,0.5939649,4.1242237,8.847202,20231017_132256_470
1575,0.5843848,4.0667434,8.828042,20231017_132256_473
1576,0.56522465,4.0571632,8.871153,20231017_132256_475
1577,0.60833496,4.1002736,8.861572,20231017_132256_478
1578,0.6562354,4.138594,8.8951025,20231017_132256_480
1579,0.60354495,4.129014,8.880733,20231017_132256_482
1580,0.64186525,4.119434,8.943004,20231017_132256_485
1581,0.613125,4.1002736,8.923843,20231017_132256_488
1582,0.5029541,4.143384,8.823253,20231017_132256_490
1583,0.5412744,4.1050634,8.842413,20231017_132256_493
1584,0.49337405,4.0859036,8.919053,20231017_132256_495
1585,0.4981641,4.071533,8.871153,20231017_132256_497
1586,0.5221143,3.9853127,8.871153,20231017_132256_501
1587,0.5604346,3.9613624,8.966953,20231017_132256_503
1588,0.60833496,3.903882,8.947793,20231017_132256_506
1589,0.5460645,3.8080812,8.986114,20231017_132256_508
1590,0.52690434,3.8368216,8.995694,20231017_132256_511
1591,0.5843848,3.8751419,9.043594,20231017_132256_514
1592,0.53169435,3.9182522,9.005274,20231017_132256_516
1593,0.57959473,4.009263,9.0004835,20231017_132256_519
1594,0.5556446,4.0427933,8.947793,20231017_132256_522
1595,0.5987549,3.9374123,8.986114,20231017_132256_524
1596,0.60354495,3.9661524,8.875943,20231017_132256_527
1597,0.5987549,3.9374123,8.871153,20231017_132256_534
1598,0.5891748,3.9182522,8.813672,20231017_132256_534
1599,0.5556446,3.9901028,8.775352,20231017_132256_535
1600,0.56522465,4.133804,8.828042,20231017_132256_536
1601,0.57959473,4.2200246,8.837623,20231017_132256_539
1602,0.57959473,4.3014555,8.828042,20231017_132256_541
1603,0.6227051,4.253555,8.760982,20231017_132256_544
1604,0.6945557,4.143384,8.775352,20231017_132256_546
1605,0.6562354,4.119434,8.765772,20231017_132256_549
1606,0.6993457,4.152964,8.708291,20231017_132256_551
1607,0.67539555,4.1098537,8.746612,20231017_132256_555
1608,0.6466553,4.0811133,8.746612,20231017_132256_556
1609,0.68976563,4.047583,8.780142,20231017_132256_559
1610,0.7089258,4.047583,8.866363,20231017_132256_561
1611,0.6562354,3.9374123,8.875943,20231017_132256_564
1612,0.6466553,4.014053,8.952583,20231017_132256_566
1613,0.64186525,3.9422023,8.923843,20231017_132256_569
1614,0.5987549,3.908672,8.981323,20231017_132256_571
1615,0.5891748,3.9805226,9.0004835,20231017_132256_574
1616,0.5939649,3.9422023,8.995694,20231017_132256_576
1617,0.5939649,3.9182522,9.086704,20231017_132256_578
1618,0.5987549,3.9805226,8.995694,20231017_132256_581
1619,0.613125,3.9517825,9.062755,20231017_132256_584
1620,0.5556446,4.0044727,8.981323,20231017_132256_586
1621,0.5604346,3.908672,9.019644,20231017_132256_589
1622,0.5748047,4.038003,8.986114,20231017_132256_592
1623,0.613125,3.9709425,8.8951025,20231017_132256_594
1624,0.5891748,3.9517825,8.928633,20231017_132256_596
1625,0.5748047,3.9565725,8.871153,20231017_132256_599
1626,0.5891748,3.923042,8.885523,20231017_132256_601
1627,0.5460645,3.9901028,8.871153,20231017_132256_604
1628,0.5125342,4.061953,8.899893,20231017_132256_607
1629,0.57001466,4.0523734,8.866363,20231017_132256_609
1630,0.50774413,4.018843,8.789722,20231017_132256_612
1631,0.53169435,4.047583,8.899893,20231017_132256_614
1632,0.6227051,4.038003,8.909473,20231017_132256_617
1633,0.5412744,4.0763235,8.8951025,20231017_132256_619
1634,0.51732427,4.0571632,8.861572,20231017_132256_622
1635,0.57001466,4.009263,8.885523,20231017_132256_624
1636,0.5364844,4.095484,8.947793,20231017_132256_627
1637,0.5460645,4.071533,8.976534,20231017_132256_630
1638,0.5604346,4.0811133,8.957374,20231017_132256_632
1639,0.47900394,4.0427933,8.976534,20231017_132256_635
1640,0.47900394,4.0763235,8.995694,20231017_132256_637
1641,0.51732427,4.1002736,8.990904,20231017_132256_640
1642,0.5364844,4.138594,8.962164,20231017_132256_642
1643,0.5604346,4.0763235,8.943004,20231017_132256_645
1644,0.49337405,4.1098537,8.966953,20231017_132256_648
1645,0.5891748,4.0811133,8.923843,20231017_132256_650
1646,0.5460645,4.0523734,8.976534,20231017_132256_653
1647,0.52690434,4.033213,8.995694,20231017_132256_655
1648,0.5987549,4.0906935,8.990904,20231017_132256_658
1649,0.613125,4.0523734,9.005274,20231017_132256_660
1650,0.5604346,4.0523734,8.952583,20231017_132256_662
1651,0.57001466,4.033213,8.938213,20231017_132256_665
1652,0.57959473,4.038003,8.904683,20231017_132256_668
1653,0.6562354,3.999683,8.909473,20231017_132256_670
1654,0.6466553,4.047583,8.976534,20231017_132256_673
1655,0.63707525,4.028423,8.952583,20231017_132256_675
1656,0.5939649,4.028423,8.875943,20231017_132256_678
1657,0.64186525,4.018843,8.933423,20231017_132256_680
1658,0.7089258,3.9613624,8.981323,20231017_132256_683
1659,0.7089258,4.0523734,8.928633,20231017_132256_685
1660,0.7424561,4.0427933,8.8951025,20231017_132256_688
1661,0.7232959,3.9517825,8.866363,20231017_132256_691
1662,0.6514453,4.1146436,8.789722,20231017_132256_693
1663,0.6610254,4.033213,8.741821,20231017_132256_695
1664,0.6322852,4.009263,8.799302,20231017_132256_698
1665,0.6514453,4.0763235,8.756192,20231017_132256_700
1666,0.6610254,4.0859036,8.828042,20231017_132256_703
1667,0.6514453,3.999683,8.818462,20231017_132256_705
1668,0.6322852,4.047583,8.828042,20231017_132256_708
1669,0.71371585,4.0667434,8.737032,20231017_132256_711
1670,0.6610254,4.0667434,8.842413,20231017_132256_713
1671,0.64186525,4.0523734,8.904683,20231017_132256_716
1672,0.6322852,4.0571632,8.851993,20231017_132256_718
1673,0.6945557,4.1098537,8.919053,20231017_132256_721
1674,0.6514453,4.0667434,8.880733,20231017_132256_724
1675,0.6322852,4.143384,8.861572,20231017_132256_726
1676,0.5939649,4.0427933,8.856783,20231017_132256_729
1677,0.57959473,4.148174,8.856783,20231017_132256_732
1678,0.6322852,4.1098537,8.832832,20231017_132256_734
1679,0.5987549,4.0571632,8.799302,20231017_132256_737
1680,0.53169435,4.095484,8.828042,20231017_132256_739
1681,0.5604346,4.0571632,8.919053,20231017_132256_742
1682,0.5604346,4.143384,8.923843,20231017_132256_744
1683,0.51732427,4.071533,8.899893,20231017_132256_747
1684,0.5460645,4.071533,8.890313,20231017_132256_749
1685,0.57001466,4.0427933,8.880733,20231017_132256_752
1686,0.5460645,4.061953,8.919053,20231017_132256_754
1687,0.5364844,4.0667434,8.8951025,20231017_132256_756
1688,0.52690434,4.138594,8.909473,20231017_132256_758
1689,0.5939649,4.1002736,8.962164,20231017_132256_761
1690,0.5412744,4.1098537,8.914263,20231017_132256_764
1691,0.52690434,4.038003,8.823253,20231017_132256_766
1692,0.5508545,4.0811133,8.914263,20231017_132256_769
1693,0.56522465,4.1002736,8.919053,20231017_132256_772
1694,0.5508545,4.1146436,8.856783,20231017_132256_774
1695,0.6227051,4.095484,8.861572,20231017_132256_777
1696,0.5748047,4.047583,8.909473,20231017_132256_779
1697,0.6466553,4.0811133,8.880733,20231017_132256_782
1698,0.64186525,4.023633,8.875943,20231017_132256_784
1699,0.62749517,4.061953,8.928633,20231017_132256_787
1700,0.5891748,4.047583,8.990904,20231017_132256_789
1701,0.5125342,4.143384,8.938213,20231017_132256_792
1702,0.5939649,4.176914,8.885523,20231017_132256_794
1703,0.5987549,4.0811133,8.909473,20231017_132256_797
1704,0.60354495,4.0763235,8.885523,20231017_132256_800
1705,0.5891748,4.0763235,8.871153,20231017_132256_802
1706,0.613125,4.047583,8.909473,20231017_132256_805
1707,0.5891748,4.0859036,8.880733,20231017_132256_807
1708,0.5364844,4.023633,8.861572,20231017_132256_810
1709,0.6322852,4.047583,8.971744,20231017_132256_812
1710,0.53169435,4.0427933,8.938213,20231017_132256_815
1711,0.6322852,3.9948928,8.995694,20231017_132256_818
1712,0.57001466,4.009263,9.077125,20231017_132256_820
1713,0.5604346,4.014053,8.986114,20231017_132256_823
1714,0.57001466,4.028423,8.981323,20231017_132256_825
1715,0.6227051,4.033213,9.019644,20231017_132256_828
1716,0.5748047,4.009263,9.034014,20231017_132256_831
1717,0.613125,4.0044727,9.057964,20231017_132256_833
1718,0.5939649,4.038003,9.081915,20231017_132256_835
1719,0.5891748,4.061953,9.005274,20231017_132256_838
1720,0.5748047,4.014053,9.0004835,20231017_132256_841
1721,0.5556446,3.9948928,8.962164,20231017_132256_844
1722,0.5460645,4.061953,9.019644,20231017_132256_845
1723,0.5987549,4.023633,8.971744,20231017_132256_849
1724,0.57001466,4.038003,8.962164,20231017_132256_851
1725,0.52690434,4.028423,8.909473,20231017_132256_854
1726,0.5748047,4.0571632,9.019644,20231017_132256_856
1727,0.5891748,4.018843,9.010064,20231017_132256_859
1728,0.5748047,4.0906935,9.053174,20231017_132256_861
1729,0.5604346,4.033213,8.971744,20231017_132256_864
1730,0.5508545,4.0523734,9.0148535,20231017_132256_866
1731,0.5843848,4.0523734,8.952583,20231017_132256_868
1732,0.5508545,4.0667434,8.952583,20231017_132256_871
1733,0.5364844,4.095484,8.928633,20231017_132256_874
1734,0.5604346,4.047583,8.851993,20231017_132256_876
1735,0.5221143,4.047583,8.899893,20231017_132256_878
1736,0.57959473,4.0906935,8.966953,20231017_132256_881
1737,0.50774413,4.119434,8.880733,20231017_132256_883
1738,0.5843848,4.1242237,8.952583,20231017_132256_886
1739,0.56522465,4.1002736,8.938213,20231017_132256_888
1740,0.5939649,4.071533,8.885523,20231017_132256_891
1741,0.57001466,4.0811133,8.861572,20231017_132256_894
1742,0.62749517,4.033213,8.885523,20231017_132256_896
1743,0.5556446,4.038003,8.847202,20231017_132256_898
1744,0.5412744,4.0523734,8.851993,20231017_132256_901
1745,0.5987549,4.061953,8.928633,20231017_132256_904
1746,0.5891748,4.014053,8.928633,20231017_132256_907
1747,0.57001466,4.0667434,8.837623,20231017_132256_909
1748,0.60833496,4.047583,8.832832,20231017_132256_911
1749,0.56522465,4.0859036,8.832832,20231017_132256_914
1750,0.56522465,4.138594,8.880733,20231017_132256_917
1751,0.6322852,4.1146436,8.770562,20231017_132256_919
1752,0.62749517,4.0427933,8.823253,20231017_132256_922
1753,0.6562354,4.0906935,8.828042,20231017_132256_925
1754,0.5604346,4.0859036,8.751402,20231017_132256_927
1755,0.60354495,4.0906935,8.875943,20231017_132256_930
1756,0.67539555,4.1098537,8.851993,20231017_132256_932
1757,0.6849756,4.061953,8.794512,20231017_132256_934
1758,0.62749517,4.061953,8.890313,20231017_132256_937
1759,0.6849756,4.0763235,8.885523,20231017_132256_939
1760,0.728086,4.047583,8.861572,20231017_132256_942
1761,0.7424561,4.1242237,8.808882,20231017_132256_945
1762,0.6849756,4.018843,8.818462,20231017_132256_948
1763,0.7041358,4.071533,8.871153,20231017_132256_950
1764,0.68976563,3.9661524,8.823253,20231017_132256_953
1765,0.62749517,4.047583,8.904683,20231017_132256_955
1766,0.6227051,4.033213,8.875943,20231017_132256_957
1767,0.6706055,4.033213,8.861572,20231017_132256_959
1768,0.62749517,4.119434,8.880733,20231017_132256_962
1769,0.63707525,4.014053,8.938213,20231017_132256_964
1770,0.68976563,4.0906935,8.933423,20231017_132256_967
1771,0.60354495,4.0859036,8.914263,20231017_132256_969
1772,0.5891748,3.9709425,8.923843,20231017_132256_972
1773,0.5939649,4.018843,8.981323,20231017_132256_975
1774,0.5891748,3.9757326,9.019644,20231017_132256_977
1775,0.52690434,3.9374123,8.976534,20231017_132256_980
1776,0.5556446,3.9901028,9.0004835,20231017_132256_982
1777,0.5987549,3.9661524,9.091495,20231017_132256_984
1778,0.5460645,4.009263,9.038804,20231017_132256_987
1779,0.5843848,3.9948928,9.005274,20231017_132256_990
1780,0.5364844,3.9853127,8.943004,20231017_132256_992
1781,0.53169435,4.0523734,9.048384,20231017_132256_995
1782,0.5460645,3.9901028,9.038804,20231017_132256_997
1783,0.5460645,4.0523734,9.0004835,20231017_132257_000
1784,0.5412744,4.0427933,9.048384,20231017_132257_002
1785,0.51732427,4.038003,9.024434,20231017_132257_005
1786,0.488584,4.014053,9.010064,20231017_132257_007
1787,0.52690434,3.923042,9.0004835,20231017_132257_010
1788,0.47900394,4.0667434,8.919053,20231017_132257_013
1789,0.5412744,4.009263,8.866363,20231017_132257_015
1790,0.45984375,4.028423,9.0004835,20231017_132257_018
1791,0.5029541,3.999683,8.890313,20231017_132257_020
1792,0.5221143,4.038003,8.875943,20231017_132257_023
1793,0.60833496,4.071533,8.837623,20231017_132257_025
1794,0.5748047,4.152964,8.909473,20231017_132257_028
1795,0.6179151,4.0427933,8.923843,20231017_132257_034
1796,0.62749517,4.095484,8.943004,20231017_132257_036
1797,0.57001466,4.0667434,8.938213,20231017_132257_037
1798,0.5987549,4.0667434,8.938213,20231017_132257_039
1799,0.6179151,4.038003,9.038804,20231017_132257_042
1800,0.6322852,3.9757326,9.005274,20231017_132257_045
1801,0.6227051,4.014053,9.048384,20231017_132257_046
1802,0.64186525,4.047583,9.029224,20231017_132257_049
1803,0.6227051,4.061953,9.029224,20231017_132257_051
1804,0.63707525,4.009263,8.976534,20231017_132257_054
1805,0.63707525,3.9613624,8.966953,20231017_132257_055
1806,0.57001466,4.009263,9.048384,20231017_132257_058
1807,0.6322852,3.9517825,8.947793,20231017_132257_060
1808,0.6179151,3.9948928,8.919053,20231017_132257_063
1809,0.57959473,4.047583,8.842413,20231017_132257_065
1810,0.62749517,4.047583,8.823253,20231017_132257_068
1811,0.60354495,4.0667434,8.871153,20231017_132257_070
1812,0.5843848,4.018843,8.784932,20231017_132257_073
1813,0.6322852,4.038003,8.828042,20231017_132257_075
1814,0.6322852,4.0667434,8.842413,20231017_132257_078
1815,0.62749517,4.1002736,8.866363,20231017_132257_080
1816,0.62749517,4.0763235,8.899893,20231017_132257_083
1817,0.62749517,4.0763235,8.933423,20231017_132257_086
1818,0.6466553,4.033213,8.866363,20231017_132257_088
1819,0.5604346,4.0427933,8.919053,20231017_132257_090
1820,0.6610254,4.047583,8.832832,20231017_132257_093
1821,0.5843848,4.1146436,8.914263,20231017_132257_096
1822,0.5987549,4.061953,8.957374,20231017_132257_098
1823,0.5939649,4.018843,8.8951025,20231017_132257_101
1824,0.6227051,4.061953,8.832832,20231017_132257_103
1825,0.6466553,4.0523734,8.890313,20231017_132257_106
1826,0.5891748,4.018843,8.856783,20231017_132257_109
1827,0.6562354,3.9709425,8.818462,20231017_132257_111
1828,0.5891748,4.038003,8.808882,20231017_132257_114
1829,0.5843848,4.047583,8.808882,20231017_132257_117
1830,0.60354495,4.018843,8.828042,20231017_132257_119
1831,0.613125,4.0571632,8.760982,20231017_132257_122
1832,0.60354495,4.014053,8.842413,20231017_132257_124
1833,0.60354495,4.047583,8.794512,20231017_132257_126
1834,0.62749517,4.018843,8.847202,20231017_132257_129
1835,0.60354495,4.047583,8.804092,20231017_132257_132
1836,0.5891748,4.1050634,8.794512,20231017_132257_134
1837,0.64186525,4.0763235,8.818462,20231017_132257_137
1838,0.60833496,4.0427933,8.808882,20231017_132257_139
1839,0.6227051,4.0811133,8.923843,20231017_132257_142
1840,0.5891748,4.0859036,8.871153,20231017_132257_144
1841,0.6227051,4.0667434,8.851993,20231017_132257_147
1842,0.57001466,4.061953,8.8951025,20231017_132257_149
1843,0.60354495,4.1002736,8.8951025,20231017_132257_152
1844,0.5939649,4.0811133,8.875943,20231017_132257_154
1845,0.5939649,4.0427933,8.847202,20231017_132257_157
1846,0.5748047,4.047583,9.019644,20231017_132257_160
1847,0.613125,4.0523734,8.938213,20231017_132257_162
1848,0.60354495,4.033213,8.990904,20231017_132257_164
1849,0.5891748,4.028423,8.990904,20231017_132257_167
1850,0.6610254,4.0859036,9.010064,20231017_132257_170
1851,0.57959473,4.028423,8.966953,20231017_132257_172
1852,0.5891748,3.999683,9.077125,20231017_132257_175
1853,0.5412744,4.033213,8.957374,20231017_132257_178
1854,0.5748047,4.0571632,8.971744,20231017_132257_180
1855,0.6849756,4.0523734,8.957374,20231017_132257_182
1856,0.6993457,4.1146436,9.091495,20231017_132257_185
1857,0.5604346,4.0763235,8.947793,20231017_132257_187
1858,0.5604346,4.047583,8.995694,20231017_132257_190
1859,0.6562354,4.061953,8.966953,20231017_132257_192
1860,0.57959473,4.0427933,8.928633,20231017_132257_195
1861,0.6179151,3.9853127,8.981323,20231017_132257_198
1862,0.5604346,4.0523734,8.990904,20231017_132257_200
1863,0.5364844,4.014053,9.0004835,20231017_132257_203
1864,0.52690434,4.061953,8.923843,20231017_132257_205
1865,0.56522465,4.0044727,8.952583,20231017_132257_208
1866,0.5125342,4.009263,8.995694,20231017_132257_210
1867,0.52690434,4.047583,8.966953,20231017_132257_213
1868,0.6179151,4.009263,8.952583,20231017_132257_215
1869,0.613125,4.0523734,8.899893,20231017_132257_218
1870,0.5460645,3.9948928,8.933423,20231017_132257_220
1871,0.62749517,3.9661524,8.947793,20231017_132257_222
1872,0.5556446,4.0763235,8.914263,20231017_132257_225
1873,0.613125,4.018843,8.933423,20231017_132257_228
1874,0.5843848,4.033213,8.947793,20231017_132257_230
1875,0.613125,4.0427933,8.8951025,20231017_132257_233
1876,0.5604346,4.009263,8.952583,20231017_132257_235
1877,0.5843848,3.9661524,8.904683,20231017_132257_238
1878,0.5364844,4.038003,8.919053,20231017_132257_240
1879,0.56522465,4.0044727,8.962164,20231017_132257_243
1880,0.5460645,3.9613624,8.914263,20231017_132257_245
1881,0.62749517,3.9805226,8.962164,20231017_132257_248
1882,0.63707525,4.047583,9.010064,20231017_132257_251
1883,0.63707525,3.999683,8.957374,20231017_132257_253
1884,0.60833496,4.061953,8.943004,20231017_132257_256
1885,0.68018556,4.047583,9.0148535,20231017_132257_259
1886,0.6179151,4.014053,8.981323,20231017_132257_261
1887,0.6179151,4.0427933,8.909473,20231017_132257_263
1888,0.613125,4.018843,8.976534,20231017_132257_266
1889,0.67539555,4.0427933,8.933423,20231017_132257_269
1890,0.60354495,4.047583,8.966953,20231017_132257_272
1891,0.60833496,4.038003,9.0148535,20231017_132257_274
1892,0.6466553,4.0044727,9.024434,20231017_132257_277
1893,0.613125,4.095484,8.995694,20231017_132257_279
1894,0.5939649,4.1002736,8.919053,20231017_132257_281
1895,0.60354495,4.1050634,8.962164,20231017_132257_284
1896,0.62749517,4.129014,8.947793,20231017_132257_286
1897,0.5987549,4.0811133,8.928633,20231017_132257_289
1898,0.5508545,4.0811133,8.828042,20231017_132257_291
1899,0.5987549,4.1002736,8.861572,20231017_132257_294
1900,0.46463382,4.061953,8.828042,20231017_132257_296
1901,0.50774413,4.018843,8.909473,20231017_132257_299
1902,0.49337405,3.9326222,8.8951025,20231017_132257_301
1903,0.51732427,3.9805226,9.024434,20231017_132257_304
1904,0.5556446,3.899092,8.957374,20231017_132257_306
1905,0.53169435,3.8080812,9.048384,20231017_132257_309
1906,0.5748047,3.784131,9.091495,20231017_132257_311
1907,0.5508545,3.8464015,9.010064,20231017_132257_314
1908,0.57959473,3.8272414,8.981323,20231017_132257_317
1909,0.49337405,3.923042,9.038804,20231017_132257_319
1910,0.5412744,3.9374123,9.101074,20231017_132257_321
1911,0.45505372,3.9469924,9.043594,20231017_132257_324
1912,0.57001466,3.9469924,8.990904,20231017_132257_327
1913,0.6179151,3.9565725,8.871153,20231017_132257_331
1914,0.57001466,3.9374123,8.875943,20231017_132257_332
1915,0.5939649,3.9134622,8.847202,20231017_132257_334
1916,0.6179151,3.9134622,8.880733,20231017_132257_337
1917,0.6514453,4.148174,8.871153,20231017_132257_340
1918,0.6322852,4.253555,8.904683,20231017_132257_342
1919,0.7089258,4.2248144,8.875943,20231017_132257_345
1920,0.6706055,4.296665,8.818462,20231017_132257_347
1921,0.6849756,4.2056546,8.775352,20231017_132257_350
1922,0.64186525,4.138594,8.751402,20231017_132257_352
1923,0.68976563,4.1098537,8.713081,20231017_132257_355
1924,0.64186525,4.148174,8.703502,20231017_132257_357
1925,0.6466553,4.152964,8.703502,20231017_132257_361
1926,0.5843848,4.138594,8.722662,20231017_132257_362
1927,0.5891748,3.999683,8.789722,20231017_132257_365
1928,0.5748047,3.9422023,8.832832,20231017_132257_368
1929,0.5748047,3.9422023,8.875943,20231017_132257_370
1930,0.56522465,3.9182522,8.875943,20231017_132257_373
1931,0.6322852,3.9422023,8.976534,20231017_132257_375
1932,0.613125,3.899092,9.019644,20231017_132257_378
1933,0.6945557,3.9134622,9.057964,20231017_132257_381
1934,0.613125,3.8799317,9.1202345,20231017_132257_383
1935,0.6322852,3.8751419,9.168135,20231017_132257_385
1936,0.64186525,3.9565725,9.148975,20231017_132257_387
1937,0.613125,3.9517825,9.125025,20231017_132257_390
1938,0.613125,3.9422023,9.067544,20231017_132257_392
1939,0.6227051,3.9326222,9.086704,20231017_132257_395
1940,0.63707525,3.908672,8.971744,20231017_132257_397
1941,0.62749517,3.9182522,9.0148535,20231017_132257_400
1942,0.6610254,3.9278321,8.875943,20231017_132257_402
1943,0.5891748,3.9805226,8.919053,20231017_132257_405
1944,0.5508545,3.9757326,8.890313,20231017_132257_407
1945,0.5939649,4.014053,8.784932,20231017_132257_410
1946,0.5364844,4.009263,8.923843,20231017_132257_413
1947,0.5508545,4.014053,8.890313,20231017_132257_415
1948,0.5939649,3.9948928,8.856783,20231017_132257_418
1949,0.5221143,4.009263,8.8951025,20231017_132257_420
1950,0.5221143,4.014053,8.880733,20231017_132257_422
1951,0.5364844,4.0571632,8.914263,20231017_132257_425
1952,0.5460645,4.0811133,8.847202,20231017_132257_428
1953,0.46942386,4.1050634,8.899893,20231017_132257_431
1954,0.5029541,4.119434,8.890313,20231017_132257_433
1955,0.5029541,4.1146436,8.842413,20231017_132257_435
1956,0.56522465,4.047583,9.053174,20231017_132257_438
1957,0.50774413,4.1146436,8.943004,20231017_132257_441
1958,0.5748047,4.1721244,8.861572,20231017_132257_443
1959,0.50774413,4.176914,8.904683,20231017_132257_446
1960,0.53169435,4.1098537,8.966953,20231017_132257_448
1961,0.5987549,4.152964,8.947793,20231017_132257_451
1962,0.5412744,4.119434,8.914263,20231017_132257_454
1963,0.57001466,4.129014,8.875943,20231017_132257_456
1964,0.56522465,4.1098537,8.962164,20231017_132257_459
1965,0.56522465,4.0571632,8.842413,20231017_132257_461
1966,0.60833496,4.1146436,8.8951025,20231017_132257_464
1967,0.6227051,4.1050634,8.909473,20231017_132257_466
1968,0.6706055,4.038003,8.962164,20231017_132257_469
1969,0.6322852,4.0811133,8.928633,20231017_132257_471
1970,0.6562354,4.0811133,8.957374,20231017_132257_474
1971,0.6466553,4.0906935,8.899893,20231017_132257_477
1972,0.6179151,4.0044727,8.885523,20231017_132257_479
1973,0.60833496,3.9565725,8.919053,20231017_132257_481
1974,0.613125,3.999683,8.856783,20231017_132257_484
1975,0.64186525,4.018843,8.875943,20231017_132257_486
1976,0.5891748,3.9661524,8.847202,20231017_132257_489
1977,0.60833496,4.028423,8.871153,20231017_132257_491
1978,0.60354495,3.9709425,8.837623,20231017_132257_494
1979,0.5748047,4.0044727,8.842413,20231017_132257_496
1980,0.5748047,4.028423,8.808882,20231017_132257_499
1981,0.6322852,4.009263,8.885523,20231017_132257_501
1982,0.6322852,4.033213,8.847202,20231017_132257_504
1983,0.62749517,4.009263,8.871153,20231017_132257_506
1984,0.67539555,4.071533,8.818462,20231017_132257_509
1985,0.6466553,4.038003,8.871153,20231017_132257_512
1986,0.57959473,4.0906935,8.818462,20231017_132257_514
1987,0.62749517,4.0427933,8.832832,20231017_132257_516
1988,0.6610254,4.047583,8.813672,20231017_132257_519
1989,0.68018556,4.0859036,8.880733,20231017_132257_521
1990,0.64186525,4.1002736,8.828042,20231017_132257_524
1991,0.6610254,4.061953,8.780142,20231017_132257_527
1992,0.62749517,4.038003,8.727451,20231017_132257_529
1993,0.68018556,4.1002736,8.732242,20231017_132257_532
1994,0.6562354,4.0811133,8.871153,20231017_132257_534
1995,0.6706055,4.071533,8.885523,20231017_132257_537
1996,0.64186525,4.1146436,8.847202,20231017_132257_539
1997,0.6179151,4.095484,8.875943,20231017_132257_542
1998,0.57959473,4.0859036,8.866363,20231017_132257_544
1999,0.5604346,4.0571632,8.8951025,20231017_132257_547
2000,0.488584,4.014053,8.8951025,20231017_132257_549
2001,0.4981641,4.009263,8.8951025,20231017_132257_552
2002,0.57001466,3.9469924,8.962164,20231017_132257_555
2003,0.52690434,4.018843,8.938213,20231017_132257_557
2004,0.53169435,4.0763235,8.919053,20231017_132257_560
2005,0.5987549,4.0859036,8.938213,20231017_132257_562
2006,0.57959473,4.0811133,8.957374,20231017_132257_565
2007,0.5939649,4.0667434,8.899893,20231017_132257_567
2008,0.5843848,4.061953,8.851993,20231017_132257_570
2009,0.57001466,4.071533,8.842413,20231017_132257_572
2010,0.5460645,4.0427933,8.885523,20231017_132257_575
2011,0.56522465,4.071533,8.804092,20231017_132257_577
2012,0.5843848,4.023633,8.851993,20231017_132257_580
2013,0.57001466,4.0811133,8.813672,20231017_132257_582
2014,0.6227051,4.1242237,8.875943,20231017_132257_585
2015,0.64186525,4.014053,8.938213,20231017_132257_587
2016,0.57001466,4.014053,8.875943,20231017_132257_590
2017,0.613125,4.071533,8.981323,20231017_132257_592
2018,0.57001466,3.9948928,8.966953,20231017_132257_595
2019,0.57959473,4.095484,8.914263,20231017_132257_597
2020,0.5221143,4.157754,9.038804,20231017_132257_600
2021,0.4981641,4.119434,8.938213,20231017_132257_602
2022,0.5125342,4.0427933,8.971744,20231017_132257_605
2023,0.53169435,4.1050634,8.981323,20231017_132257_608
2024,0.5843848,4.0906935,9.0148535,20231017_132257_610
2025,0.5843848,4.071533,9.034014,20231017_132257_613
2026,0.6322852,4.061953,9.010064,20231017_132257_615
2027,0.63707525,4.0044727,9.019644,20231017_132257_618
2028,0.5891748,4.0044727,9.072334,20231017_132257_620
2029,0.60354495,4.014053,9.1202345,20231017_132257_623
2030,0.5604346,3.9853127,9.1202345,20231017_132257_625
2031,0.5556446,4.0427933,9.086704,20231017_132257_628
2032,0.5843848,4.071533,9.091495,20231017_132257_631
2033,0.5748047,4.0523734,9.072334,20231017_132257_633
2034,0.5843848,4.0523734,8.995694,20231017_132257_636
2035,0.64186525,3.9805226,9.019644,20231017_132257_638
2036,0.63707525,4.028423,9.005274,20231017_132257_641
2037,0.6179151,4.033213,9.0004835,20231017_132257_644
2038,0.5748047,3.9853127,9.072334,20231017_132257_645
2039,0.63707525,3.9805226,9.043594,20231017_132257_648
2040,0.613125,3.9805226,9.010064,20231017_132257_651
2041,0.6179151,4.028423,8.952583,20231017_132257_653
2042,0.6179151,4.023633,8.890313,20231017_132257_656
2043,0.60354495,4.071533,8.952583,20231017_132257_658
2044,0.62749517,4.018843,8.943004,20231017_132257_661
2045,0.68018556,4.018843,8.938213,20231017_132257_663
2046,0.6322852,4.033213,8.837623,20231017_132257_666
2047,0.64186525,4.0571632,8.871153,20231017_132257_668
2048,0.6562354,4.0811133,8.866363,20231017_132257_671
2049,0.68018556,4.0667434,8.899893,20231017_132257_673
2050,0.5364844,4.047583,8.856783,20231017_132257_676
2051,0.6227051,4.038003,8.885523,20231017_132257_678
2052,0.64186525,4.014053,8.875943,20231017_132257_681
2053,0.5556446,4.009263,8.880733,20231017_132257_683
2054,0.5556446,3.9853127,8.804092,20231017_132257_686
2055,0.52690434,4.028423,8.799302,20231017_132257_689
2056,0.5891748,4.0906935,8.856783,20231017_132257_691
2057,0.5748047,4.1098537,8.875943,20231017_132257_694
2058,0.57959473,4.0667434,8.880733,20231017_132257_696
2059,0.5987549,4.1146436,8.818462,20231017_132257_699
2060,0.5891748,4.0523734,8.780142,20231017_132257_702
2061,0.60354495,4.1146436,8.904683,20231017_132257_704
2062,0.5987549,4.133804,8.804092,20231017_132257_707
2063,0.52690434,4.1050634,8.789722,20231017_132257_710
2064,0.52690434,4.1098537,8.851993,20231017_132257_712
2065,0.5125342,4.0859036,8.746612,20231017_132257_714
2066,0.613125,4.1146436,8.780142,20231017_132257_716
2067,0.5125342,4.0523734,8.751402,20231017_132257_719
2068,0.56522465,4.0859036,8.808882,20231017_132257_721
2069,0.613125,4.0763235,8.784932,20231017_132257_725
2070,0.6466553,4.0763235,8.765772,20231017_132257_727
2071,0.60354495,4.023633,8.780142,20231017_132257_729
2072,0.57959473,4.0523734,8.765772,20231017_132257_732
2073,0.5843848,3.9757326,8.775352,20231017_132257_734
2074,0.62749517,4.119434,8.832832,20231017_132257_737
2075,0.613125,4.0427933,8.828042,20231017_132257_739
2076,0.67539555,4.0859036,8.823253,20231017_132257_742
2077,0.63707525,4.014053,8.8951025,20231017_132257_745
2078,0.7185059,4.0763235,8.875943,20231017_132257_747
2079,0.6610254,3.9613624,8.899893,20231017_132257_750
2080,0.67539555,4.033213,8.899893,20231017_132257_752
2081,0.5843848,4.009263,8.957374,20231017_132257_755
2082,0.5939649,4.038003,8.919053,20231017_132257_757
2083,0.56522465,4.0523734,8.957374,20231017_132257_760
2084,0.5891748,4.028423,9.005274,20231017_132257_764
2085,0.57001466,4.0427933,9.0148535,20231017_132257_767
2086,0.5891748,4.038003,8.952583,20231017_132257_767
2087,0.5508545,4.038003,8.943004,20231017_132257_770
2088,0.5412744,4.028423,8.928633,20231017_132257_772
2089,0.5604346,4.033213,8.943004,20231017_132257_775
2090,0.5843848,4.133804,9.0004835,20231017_132257_778
2091,0.5891748,3.999683,8.986114,20231017_132257_783
2092,0.5364844,3.9517825,8.952583,20231017_132257_785
2093,0.5939649,4.0427933,8.986114,20231017_132257_786
2094,0.60354495,4.047583,8.966953,20231017_132257_788
2095,0.5221143,4.028423,9.005274,20231017_132257_791
2096,0.5508545,4.038003,9.062755,20231017_132257_793
2097,0.56522465,3.9853127,9.067544,20231017_132257_795
2098,0.5460645,4.028423,9.1202345,20231017_132257_798
2099,0.49337405,4.0523734,9.067544,20231017_132257_800
2100,0.5412744,3.999683,9.0004835,20231017_132257_803
2101,0.51732427,4.0044727,9.144185,20231017_132257_805
2102,0.5125342,4.018843,9.043594,20231017_132257_808
2103,0.5939649,3.999683,9.024434,20231017_132257_810
2104,0.53169435,4.047583,8.995694,20231017_132257_813
2105,0.5125342,4.009263,9.0148535,20231017_132257_815
2106,0.5748047,4.009263,9.067544,20231017_132257_818
2107,0.56522465,4.0044727,8.986114,20231017_132257_820
2108,0.5125342,3.9134622,9.105865,20231017_132257_823
2109,0.60833496,4.028423,8.952583,20231017_132257_825
2110,0.6227051,4.038003,8.990904,20231017_132257_828
2111,0.5987549,4.023633,9.062755,20231017_132257_831
2112,0.5460645,4.018843,9.0004835,20231017_132257_833
2113,0.5987549,4.038003,8.938213,20231017_132257_836
2114,0.5939649,4.0427933,8.919053,20231017_132257_838
2115,0.5460645,4.0667434,8.842413,20231017_132257_841
2116,0.5460645,4.0523734,8.880733,20231017_132257_843
2117,0.5891748,4.061953,8.794512,20231017_132257_846
2118,0.60354495,4.0859036,8.851993,20231017_132257_848
2119,0.56522465,4.1098537,8.794512,20231017_132257_851
2120,0.5891748,4.0523734,8.804092,20231017_132257_854
2121,0.5748047,4.071533,8.799302,20231017_132257_856
2122,0.613125,4.1050634,8.818462,20231017_132257_859
2123,0.68976563,4.0523734,8.851993,20231017_132257_861
2124,0.60833496,4.1146436,8.861572,20231017_132257_864
2125,0.6514453,4.1098537,8.851993,20231017_132257_866
2126,0.6227051,4.1050634,8.789722,20231017_132257_869
2127,0.60354495,4.028423,8.842413,20231017_132257_872
2128,0.6514453,4.1050634,8.799302,20231017_132257_874
2129,0.5987549,4.0906935,8.828042,20231017_132257_877
2130,0.6179151,4.023633,8.871153,20231017_132257_879
2131,0.62749517,4.0667434,8.871153,20231017_132257_881
2132,0.62749517,4.0859036,8.875943,20231017_132257_884
2133,0.60354495,4.047583,8.899893,20231017_132257_887
2134,0.60833496,3.9757326,8.823253,20231017_132257_890
2135,0.5939649,3.9326222,8.804092,20231017_132257_892
2136,0.5556446,4.018843,8.871153,20231017_132257_896
2137,0.6322852,4.0571632,8.933423,20231017_132257_897
2138,0.60833496,4.0667434,8.837623,20231017_132257_900
2139,0.5843848,3.9613624,8.871153,20231017_132257_901
2140,0.613125,4.0044727,8.928633,20231017_132257_905
2141,0.6227051,3.9901028,8.837623,20231017_132257_907
2142,0.62749517,4.0427933,8.851993,20231017_132257_910
2143,0.5364844,3.9757326,8.8951025,20231017_132257_912
2144,0.62749517,3.9661524,8.8951025,20231017_132257_915
2145,0.5604346,4.014053,8.871153,20231017_132257_917
2146,0.56522465,4.033213,8.856783,20231017_132257_920
2147,0.53169435,3.9565725,8.866363,20231017_132257_923
2148,0.5125342,3.9757326,8.885523,20231017_132257_925
2149,0.5843848,3.999683,8.890313,20231017_132257_928
2150,0.5939649,3.9757326,8.875943,20231017_132257_930
2151,0.5843848,4.061953,8.856783,20231017_132257_933
2152,0.5508545,4.071533,8.933423,20231017_132257_935
2153,0.57959473,4.023633,8.938213,20231017_132257_938
2154,0.5939649,4.1002736,8.943004,20231017_132257_941
2155,0.5987549,4.0859036,8.990904,20231017_132257_943
2156,0.5748047,4.1146436,8.947793,20231017_132257_946
2157,0.5364844,4.061953,8.856783,20231017_132257_949
2158,0.5891748,4.0811133,8.919053,20231017_132257_951
2159,0.57001466,4.095484,8.899893,20231017_132257_953
2160,0.6514453,4.095484,8.923843,20231017_132257_956
2161,0.5748047,4.1050634,8.923843,20231017_132257_958
2162,0.64186525,4.1242237,8.952583,20231017_132257_961
2163,0.6514453,4.0427933,9.024434,20231017_132257_964
2164,0.6466553,4.1050634,8.938213,20231017_132257_967
2165,0.62749517,4.0427933,8.904683,20231017_132257_969
2166,0.5843848,4.0523734,8.986114,20231017_132257_971
2167,0.60354495,4.0427933,8.986114,20231017_132257_974
2168,0.613125,4.1002736,8.971744,20231017_132257_976
2169,0.5556446,4.038003,9.029224,20231017_132257_978
2170,0.5556446,3.9565725,8.947793,20231017_132257_981
2171,0.57959473,4.0044727,9.043594,20231017_132257_983
2172,0.62749517,3.9278321,9.053174,20231017_132257_986
2173,0.56522465,3.9901028,8.957374,20231017_132257_988
2174,0.5460645,3.9901028,9.010064,20231017_132257_991
2175,0.5843848,3.9374123,9.0148535,20231017_132257_994
2176,0.5364844,4.018843,8.976534,20231017_132257_996
2177,0.5748047,4.028423,8.986114,20231017_132257_998
2178,0.57001466,3.9757326,8.909473,20231017_132258_000
2179,0.6179151,4.023633,8.885523,20231017_132258_003
2180,0.5843848,4.0427933,8.938213,20231017_132258_006
2181,0.5125342,4.014053,8.966953,20231017_132258_009
2182,0.60354495,4.038003,8.966953,20231017_132258_011
2183,0.5364844,4.071533,8.957374,20231017_132258_014
2184,0.57959473,4.028423,8.847202,20231017_132258_016
2185,0.5556446,4.0763235,8.899893,20231017_132258_019
2186,0.5556446,3.9757326,8.914263,20231017_132258_022
2187,0.5604346,4.095484,8.919053,20231017_132258_024
2188,0.5221143,4.0859036,8.962164,20231017_132258_027
2189,0.5604346,4.0763235,8.8951025,20231017_132258_029
2190,0.57959473,4.047583,8.952583,20231017_132258_034
2191,0.56522465,4.0523734,8.966953,20231017_132258_035
2192,0.60354495,4.033213,8.966953,20231017_132258_037
2193,0.60833496,4.033213,9.010064,20231017_132258_040
2194,0.57959473,4.0044727,8.966953,20231017_132258_043
2195,0.5891748,4.028423,8.919053,20231017_132258_044
2196,0.60833496,4.023633,8.851993,20231017_132258_047
2197,0.613125,3.9422023,8.861572,20231017_132258_049
2198,0.6322852,4.023633,9.010064,20231017_132258_052
2199,0.6514453,3.9613624,8.856783,20231017_132258_056
2200,0.6610254,4.038003,8.938213,20231017_132258_057
2201,0.5891748,3.9853127,8.871153,20231017_132258_060
2202,0.56522465,3.923042,8.966953,20231017_132258_062
2203,0.5604346,4.018843,8.851993,20231017_132258_064
2204,0.60354495,3.9517825,8.861572,20231017_132258_068
2205,0.5364844,3.9757326,8.880733,20231017_132258_070
2206,0.57001466,3.908672,8.957374,20231017_132258_072
2207,0.51732427,3.894302,8.8951025,20231017_132258_075
2208,0.5221143,4.014053,8.8951025,20231017_132258_077
2209,0.5843848,4.009263,8.856783,20231017_132258_079
2210,0.6322852,4.033213,8.760982,20231017_132258_082
2211,0.6322852,3.9948928,8.909473,20231017_132258_084
2212,0.5939649,4.0044727,8.880733,20231017_132258_087
2213,0.6179151,4.047583,8.861572,20231017_132258_089
2214,0.60354495,4.047583,8.780142,20231017_132258_092
2215,0.53169435,4.028423,8.756192,20231017_132258_094
2216,0.5843848,4.028423,8.722662,20231017_132258_097
2217,0.56522465,4.148174,8.760982,20231017_132258_099
2218,0.5843848,4.148174,8.770562,20231017_132258_102
2219,0.5987549,4.143384,8.823253,20231017_132258_104
2220,0.6466553,4.148174,8.770562,20231017_132258_107
2221,0.56522465,4.129014,8.713081,20231017_132258_110
2222,0.57001466,4.1050634,8.751402,20231017_132258_112
2223,0.5748047,4.0571632,8.765772,20231017_132258_115
2224,0.5364844,4.0859036,8.871153,20231017_132258_117
2225,0.51732427,4.028423,8.837623,20231017_132258_121
2226,0.5460645,4.033213,8.919053,20231017_132258_122
2227,0.613125,3.899092,9.034014,20231017_132258_125
2228,0.5987549,3.8607717,9.043594,20231017_132258_127
2229,0.5987549,3.908672,9.125025,20231017_132258_130
2230,0.5939649,3.8176613,9.158555,20231017_132258_133
2231,0.613125,3.899092,9.2256155,20231017_132258_135
2232,0.5221143,3.8847218,9.110655,20231017_132258_138
2233,0.5460645,3.908672,9.153765,20231017_132258_140
2234,0.52690434,3.9613624,9.125025,20231017_132258_143
2235,0.60354495,3.9422023,9.1202345,20231017_132258_147
2236,0.5987549,4.0044727,9.057964,20231017_132258_148
2237,0.6466553,3.9805226,8.995694,20231017_132258_150
2238,0.5987549,3.8703518,8.962164,20231017_132258_153
2239,0.5939649,4.018843,8.995694,20231017_132258_156
2240,0.56522465,4.0571632,8.966953,20231017_132258_158
2241,0.57001466,4.157754,8.842413,20231017_132258_160
2242,0.5412744,4.2056546,8.789722,20231017_132258_163
2243,0.5987549,4.148174,8.847202,20231017_132258_165
2244,0.5843848,4.148174,8.818462,20231017_132258_168
2245,0.6514453,4.0859036,8.804092,20231017_132258_171
